gyroscopex,gyroscopey,gyroscopez,accelerometerx,accelerometery,accelerometerz
-58.36037850791264,17.48036786650445,-14.993808673809099,0.6418442494487953,-0.34852156909168963,1.4726411510951878
57.64531702522734,57.52830800027846,-160.17973821950457,1.7486261915000818,1.3530665217679565,-0.5969870027328885
-17.59759896575096,-98.55512989090464,46.83203540814887,1.9273375453787591,-0.9395630175242418,-1.3733810884596793
-50.2937845051992,137.56190061285554,-136.21336538267383,-0.31000929621908124,0.8336764386623812,-1.308921958395318
124.70878828311919,109.96589990991617,117.83717839907013,0.5883296781169265,0.5743354290352563,-1.2414780986372254
-25.242344556449268,-121.75385794884751,-31.253850429870226,-1.9541142142279586,0.7417332212529648,0.8479466231396762
148.9842598800335,12.516034997522127,42.60138157747494,0.38099331135368564,-1.3041808260801346,-1.6928811351026662
121.4622058520647,83.10435670751463,162.10666203671644,-0.4265989233017926,0.8684355472861638,0.08002782397799058
-75.264664328355,-135.2484716831851,-142.00927789472053,-0.9654644862150072,1.8052556228603107,-0.6251447072798673
-11.87368730484772,17.291029616453216,49.618382424692044,-0.9479117030229043,-0.02017113801716297,0.8812248212352021
96.20782789797067,-23.194688224086434,-15.332638016912824,-0.769986682202608,-1.3271966142762612,1.3408169569331534
158.88369247143152,8.129799567761268,-71.0883292902651,1.4543866225570783,1.1640122375913702,1.8260025491756458
-173.6420231074816,-37.73669393632153,4.689372192756309,-0.019370463050724762,-0.9836470049950186,-0.725843241128215
143.31819569921538,59.884863906683506,168.7405964184399,0.028744124507142033,0.11142767503627926,-1.3243741371019824
-97.95138862149723,-21.98933474467472,-52.18481073576474,-1.9726220661609064,-0.8000246540957492,1.012602913888509
-30.047208886894197,-151.52442356993467,-40.394178968681956,-1.4976684398687006,0.5493091030305197,-0.13611025322330672
-118.36148696715587,-120.69765690348575,108.58091189505217,-1.1894094525620758,0.21426744390750807,-0.3216758468210039
-79.05738223093216,-157.00284839610032,16.17152025117116,-0.8879341042282869,0.9459437702776552,-1.346334282648229
-163.2630685744,8.527023750640069,29.99262714555104,1.5808589674105034,1.0796561659463335,0.850099927098197
24.571260595156986,-100.11033642677988,-69.73102434174949,-1.2679096205472353,1.3916371202885758,-0.6859564046250162
149.6897950047279,-80.2928410306149,144.949704270724,0.3183043007325992,-1.1235088593299283,-1.3392690505574252
51.818992107216644,-149.66051171061557,-63.233011057173115,-0.11708280205146293,-0.9024618877345394,-0.663207823109643
54.71053686777725,-12.015639126661597,92.0880693169251,0.3691327500517718,-1.1003254338589468,0.9972600416229147
-88.40645859473925,7.9057574599796965,-78.39932299671995,1.8921707517353985,0.36889326271007983,0.8824622392922068
138.45824481921903,69.58469350427839,-154.44668025960667,0.006558209428657591,-0.30237876786278406,0.9512441679108745
145.96709895406786,75.42262852413063,32.10979077806482,-0.8897408025212155,1.1365350940512782,-0.5554482736140711
-48.03499294664431,143.58848245067793,67.18315035148981,0.7877422244713581,-1.0447608637197052,1.1246396239076866
38.415260924907585,15.553302929800253,92.18090018563731,-1.2645785515937993,-0.6817682082764218,1.283977428991836
21.26930106971176,-76.04968809874791,-65.226522405486,-0.05634862635281612,-0.9346450978646783,1.6911332526133274
-62.780507936119704,-149.74940807475303,-120.74289843230767,-0.9990357397718244,-1.0433634685766582,1.0863163209647664
-20.628069362238932,64.2035080403378,164.6711106978122,1.2444285612253165,0.9827787718405161,-0.44341739065863317
26.865445705408092,69.98386774704409,-46.804987382045795,-1.780754094839072,1.202815159390568,0.7363099037811431
107.19442804000715,-163.04350117043253,-106.18344356808772,-0.04388097561449156,1.0230375590245333,0.6019217798564473
-175.08603109749936,86.21735788938338,96.59908397477727,1.9119380649622641,-1.3267914563050263,-1.7205041319036258
-54.639365987896554,-9.180073083474298,-132.23733088291766,-0.89946445082676,-0.393680898319996,1.243405142846456
168.21765238383858,-6.661812241688892,-175.48224756430872,-1.1803713368027933,-0.9919678587346579,-1.1344419501704088
-62.46435635921904,-81.35998971658843,-152.10278004981382,1.4085071834244736,1.2681175254332158,1.3183267251509014
77.63712969225213,-15.599444587573203,24.723145609570707,-1.0172061477855219,-1.1161733082488383,-0.7692808655849528
-88.62360715236872,-16.584990341960662,-40.78638078889543,-0.5669867670404747,0.5022261494747924,-1.9391211707401408
167.40010104658336,127.8923745538138,116.07027798200056,0.4394964386264335,-0.5987157011748749,-1.7630856654919884
140.6159199225841,82.20848211233226,-75.8817593579761,-1.0044162894703992,-0.3128207682373363,-0.9731899759509273
25.72371642546841,-147.12927404272222,-140.62927030108807,-1.3227523441109432,0.7022850576424968,-1.2398367684701768
4.570875928534775,-120.88142846272301,-31.011992264146613,-0.6173112966859424,-1.117625612955489,-1.3487046529577014
135.4685355614825,84.92232242911427,-74.33936302934471,1.115855674132995,-0.8287068007991034,-1.1177538871473085
36.28688491526765,31.343791672709727,-122.91070993632513,-1.6791111008970372,1.8839693440678702,0.359096273664707
-0.30749588992881627,144.47325964492438,136.81730204683532,0.0848325690466778,0.8307768092810193,-1.3263247948362569
78.81735342465561,104.08482842317267,57.081294499599835,0.6901085049100186,1.247812224181228,0.5935158626122239
-29.340596650422327,123.38896884187488,-15.881967641899223,-1.470890263667758,-0.5034731133701471,1.9479626138173627
58.68493756140515,89.63961330070276,123.72846359052369,1.1188103164165764,1.5576038339043379,-1.0787952687342925
100.54992124022817,141.8333244768894,114.61317167730203,-0.7391238918441707,0.5180669001161782,1.6634893706933878
-144.95591161028528,-128.05021496202602,168.70326574642826,1.4334570259021793,0.855895800120821,0.5141067536831647
25.113153745329868,-127.18157161128852,-40.15415476161951,0.002322131938119476,0.6188284633566874,-0.7615715634853983
66.75741217201644,-169.50712773112076,-1.8633023211604325,1.8332659419806072,1.156395362420458,1.7674726555259737
117.64080585261462,103.73657105425036,122.51796691082546,-1.8664988654921983,1.6155012638748945,-1.8325896103056998
40.20382207589142,115.36118083054316,111.80183960183047,1.9950393358460787,1.7517636290581575,0.9108340470507548
-110.04618705407474,52.01820779942443,-41.96057500046891,0.15845314583631787,-1.1405042816771305,-0.685273672346598
-101.13697199279262,122.79526796807829,161.18945707517037,-0.37859188532716903,-0.2805909308770529,-0.463551575815786
70.47076331789285,-132.62489326352406,-102.31216587474087,0.0915998346211202,0.3452349664943517,1.2906801553813407
-83.58833555879951,170.38659576049764,-30.960211632851042,-1.3080815348863717,-1.3364479155605702,-1.2588811695715885
-69.54174267183053,110.26318330164878,98.57052199137621,-0.08876364936864167,-0.8148719076561979,1.6911814064691826
107.10224555663507,-3.626877309563099,142.38727856208197,0.8199014681746344,-0.48785644341182177,-1.3336635600116264
93.92091299605363,-177.19521657353144,152.59928861435787,-1.5555249105379798,-0.017632361318117518,1.324153193968617
-162.61821409277675,38.5462860936768,-24.567921551631144,-1.6491857917841606,-1.703782205121401,-0.21001100679459572
-157.91480612129587,63.325385797738534,4.770896236080347,-0.11315108128250495,-0.3347474219907318,1.1631876757354092
6.699360652718326,-121.97364141548647,117.16029435390908,-1.6991799745048426,0.304758058653261,1.033792086086288
91.6370550054624,98.61932637147027,166.28960621244386,-1.8858908761249826,1.4244804058934566,-0.3263996485540668
136.46899947860538,-115.29905177467238,79.09321624286707,0.6933959652049433,0.48747924460859426,1.9791904853262507
-108.29443441507813,-133.94686771498158,-115.33944833951217,1.3993626026833934,0.06616569235109226,0.0632900629861961
-144.05455985770968,44.75638924500254,-151.99585388137962,-1.1562328711896845,0.02621469141315025,1.5777958694287486
57.00766010579116,74.1019886697174,178.08791138169926,-0.6535740798725556,-0.7887248732862306,-0.3175761750196773
-172.47542908841805,-93.75583835519184,74.13147301054497,1.7381288987089105,-1.5450894951183534,-0.45568077987275624
27.81751683301468,10.071668188657668,46.18793108384412,-0.6250606893396378,1.7878045265219953,-0.8452766675041521
-69.11197486458586,-6.167722401710165,142.5386421916619,1.7240516335119551,-1.499503797491906,-1.8408786916707167
-65.62738807863963,-39.90042324051052,-96.57728955248024,-0.5560509436612207,-1.2391075209139575,0.924904691528035
-165.70929636224054,62.9668366527346,120.00287222932928,0.33039599881693027,1.7617609963406244,0.5655441610422294
147.8730770670121,149.8296573960207,-66.091840372091,-0.004210375169344527,0.08754360892803525,-1.464125790562179
-151.74856320762058,-123.27448266852811,-78.75025171420847,-1.7484173086786972,1.9154046707675616,-0.36003507464174955
110.36787601148637,26.715583907409126,179.9247276819408,0.6584274869311204,-1.1271936838864876,-0.567629506841909
32.5689321766767,174.9030428391457,18.698595233282106,-0.26015264136545335,0.4980864909802918,-0.5706664652986779
150.66735379358153,-176.51457223984616,157.90371121942712,1.1636989842706131,1.2604119644875569,1.0027145230863312
-29.06689122174342,31.023925974597717,-81.57473260246024,-0.40319039440141546,1.7679124185998654,0.019406729190726946
155.07222894557663,82.54810316337682,-164.34431051676114,-0.9892328111211999,0.9486905203939875,0.8756715103559332
34.19447316488922,84.39770436394849,69.28471179320658,1.9174420480154262,0.6751028977326214,0.7213921908628
-58.54129490745464,-89.73030875721702,-16.02141890235916,-1.8538259706415143,-1.7429494891634008,-0.8409721491417654
110.61966541592062,-57.46632109845967,-89.66617276181383,-1.5079961501328691,1.428691703478508,-1.8727028115563642
-8.59924867728779,-129.6100749148859,-33.42003297135727,-0.303584865574682,-1.1182252470225862,0.9522280384841304
-124.36219234376588,-44.41343273419008,-158.99455064396247,0.0847253579108509,-1.7881215299342728,1.0484670890298138
104.20063141900766,149.64987048708628,48.36205332893752,1.0171406484478096,-1.1715521462438705,0.9526253810929206
-26.243116411672162,65.52553512741795,10.99943062039992,1.5619124660805004,0.8487227977566918,-1.2779651756665689
15.079340221635334,140.6368836274636,-164.32876762650017,1.7188422474745,1.395747608140987,0.176539732766952
-80.7176145913127,-11.234402840434797,-115.31306964731635,0.32686499233718536,-0.9245676234106983,0.0545882394360655
-27.6929682257001,160.80576916730422,-177.5510596685105,0.09055944596310317,-1.0275058096799539,-0.14104470196155594
60.9691910058298,-123.17355914885336,-14.64276786056962,0.622923530271613,-0.045029116936046165,0.4747198720781185
-26.009261035828246,-54.29026446466408,43.1000543428143,-1.4522071230851323,0.7469260007524658,1.3175487510226578
-151.58653307566524,85.91330542234351,-114.8883128515313,1.2615771602748302,1.6664326735041208,0.2113498122370343
143.85840651988673,61.538895971351394,-87.95208946178204,1.0408064894212785,-0.9612513271909537,-1.6185875460651418
150.38295092198854,-61.645258941910726,-155.8401128101925,-0.1460880953902035,1.097741753070975,0.21314292332028328
-71.69239106764151,72.9545159126032,5.61582436088753,-0.152010984400623,1.9110375178231602,0.24206918920456877
-154.19340902461593,154.81644933092213,-103.54075567058972,-1.9252282553366973,-1.005558394698769,0.4520866468093927
139.2928377257037,108.01182660444596,60.17888042582399,1.4276346512943103,-0.33478164337310234,-1.2783581448707584
-24.56353449656413,-154.89783517152367,-29.42225152395369,-1.3160365696529177,1.1669828753781992,-1.1218128452254787
-127.93846599694201,-115.1440757417644,170.89041119775362,0.7916133439209672,1.1189206804705023,-1.0609170379457136
82.42134226761351,-118.35186169725252,89.29752691989563,-1.2035300173978798,0.6890592235606658,-1.411622058843153
-13.481912180037682,-155.3315195168659,153.36679812663294,1.270402796835485,1.3712759045433631,-1.9641203985434945
-98.76684337213396,109.6414917849238,-32.75044313198555,-0.33622031953692844,1.6894811339221993,-0.031613928385353596
162.3021578290593,-162.15551210144878,91.8266533223582,-0.9993158374309687,1.0122660682273223,0.45616498163251284
123.36699432265704,-51.43530421363292,-26.706441867316244,-1.2004252962070487,0.26335677333460783,-1.4737949358336677
139.10330527231253,134.77077323192316,14.679867365729052,-1.7085417499396054,0.026190428332769855,-1.025894317937945
87.5946381648327,18.00913441033029,-85.6289925741689,-1.5359852615718563,1.1571888904952239,-0.7182176755214478
170.35564794195335,134.6939071055392,24.414775285112228,-0.6060550385006649,0.38531379205980354,1.3852711184389266
127.95581760987551,124.60219105804174,26.031668770937188,0.0828546018874361,-0.5287386562842871,-1.4656397477545218
-129.44576760390518,105.10934009122451,171.75136572203382,-1.7454715836807781,1.879745976522332,0.38718859943639083
18.001047196079384,125.73836278658973,-68.69203126150916,0.26614448630252374,1.8928100555923382,-0.43593392399836883
-47.52446315019694,110.25782925329946,28.119955498750272,-1.3988635672904155,1.510292257412782,1.763754956364076
-101.88049272263898,-145.1184460018831,147.40833436465425,-0.33135579604874943,-1.4842750009447099,1.3607906289356952
49.878925514122216,174.04964395285896,-101.44763668895277,0.8040274317331879,0.0674147106995946,-0.6849727341930238
142.94052889441986,175.0817207161001,98.84317801896037,-0.8635444124166574,-0.9584386136299163,0.52271533653454
99.24048661730114,163.35033511648754,77.95093205942067,1.8108383678580817,0.13052459481062284,-0.43537855640713197
19.33752616074355,-148.06216977040657,-138.0019621920715,-0.3829147267049504,1.0358616884669627,0.3861573874891384
27.95104402568188,-134.647093175246,138.05150164746846,0.17561201878326482,-1.525929639008814,-1.6025091560388653
90.26617664508774,-72.59788862628905,133.0957120080078,1.4026921636494802,0.469236003980797,-0.8069063979863329
6.018196359067616,176.88612763671068,94.61464364654205,-1.2202998694749105,-1.2792139095443975,-0.2376589926923094
132.69403911231734,171.88040299082667,-178.16369379286027,1.2910663602386787,-1.4301884034869197,-0.0247846746789655
172.50707089363,-98.59897681202683,-74.0669252426404,-1.213087750914755,-0.8927413797713148,-0.5951764409484261
65.26921441272316,162.46069554849947,137.7649298150331,1.3481015481595873,0.8120919316517123,1.2872737597382988
-158.77540422428729,-61.471682997115934,-106.2595130928086,-0.35652405213334326,-0.4407864556003549,0.49027318298795564
-119.00005815624667,-38.401868877262444,46.16802067925693,-0.7386007861985942,-0.994286405702292,-1.6789558406710703
161.45220528026846,131.77215205660065,-141.07421841817205,-0.880404396005527,0.1567247876958473,0.20236506174824465
-7.402295511488319,-16.22394734040273,101.37788673209235,1.8274658602649696,1.9034992992378301,-1.400552438915743
-117.53533699063888,143.68953895164134,143.90812778225592,-0.29753645527837147,1.186029472753431,-1.112139577392631
58.536467049389785,151.13953659510116,35.49090875452097,-0.34805828114638704,-1.064930682162168,0.9698862461661126
-83.9366536126305,14.55066519088922,-102.17341568628733,-0.4509896056569751,-1.0975263831826383,1.2803787918017506
178.09075481671664,-13.563525487320703,154.86096853631494,0.3523067814830525,1.9712093164632964,1.5240397673884938
172.50682175081636,136.4619058249893,-145.62268587093828,-1.9558859699430693,0.9175399854167607,0.4615004400105991
-127.82380625023052,-179.3862517623965,20.09474030466356,1.870261228888387,0.7303138909830338,1.7544545760450139
147.67700594409558,96.53098760300725,28.69253296452044,1.6946808482764801,0.19600158406313994,-1.0897709454635698
97.10860866050854,-179.6403998655932,129.96744464150765,0.4168983777310049,1.1394694284273652,1.0974184184562588
130.50236871349654,-131.97173702019148,-87.71365860652068,0.5761473812798279,-1.8123746957002553,1.2782100010595077
166.3845878018205,-19.979842133747837,32.633122006702024,-1.7587051937086673,-0.7463725085930699,0.7616576860133475
-169.5488774279118,-5.453602342698275,87.66944461333628,-1.0458724133600112,0.9385258061086366,0.9764920754407713
-138.42277998788455,48.6419232917861,129.74409687071704,0.790574152311375,1.4887472035244484,-1.208804568037535
-123.30964618224434,41.95626767637282,161.5016289194623,0.20348793431238255,0.5548151429399346,0.731023755513545
-11.81424374198906,-134.9988619968476,-69.8448872400175,-0.8247922003875643,0.6295783709668581,-0.18373886168849918
-136.8514590667768,130.45166067864267,-164.50857708523662,0.2582498373504927,-1.7894043762550802,1.4014575612452496
-166.82930543157624,136.11893346517786,-32.27865798569508,-1.6396994379071175,-0.6318674218908109,1.5356122438135817
157.4384453096862,16.680749454700305,64.13909696990214,-0.01745630887492311,-0.9371289186708642,0.5513075096648263
100.02460026565268,142.61019072611202,-123.04690267016173,0.786721784041231,1.0894641417335578,-0.32167157053095297
80.23918877846694,103.01925789873837,-171.40637405631526,-0.3127588966078152,-0.39727148935381695,-1.1868905879405243
-49.2962223743225,121.19170950129,158.73167377775127,-0.9168596875905197,1.7518020491528756,1.5929413873796237
105.12961222880904,86.70326471295704,138.7425248909314,0.5146187220056815,-0.39670613014332945,-0.6552277361531034
102.98383277767556,-104.55093198604861,74.66393588284606,0.8811051188503827,-1.2175375535322672,-0.7145310093532236
150.5008763277787,124.21415476295567,115.42429253409244,-0.980332815460645,1.2607132400944492,0.4488461294305268
-25.25138104442226,101.79811898406905,-137.35544164064015,-1.394701610262873,1.3494822724794568,1.9183307924255866
-154.80728164729317,152.67777591025077,84.15888000048767,-0.2440127981710738,1.4162728092115353,0.4594490294499809
138.97186867927365,-65.69290257638306,-22.645755463868824,-0.7867441763739031,1.623593222034935,1.0907918155774996
-136.36566408158905,40.303787694444566,-143.00195538208501,-0.7417293220671421,-1.2112809970280538,0.8942823575520755
33.19141488142074,146.25801784769368,119.40597113959035,0.2932595814745653,1.8142641710140217,-0.730862962989514
-114.10040919731004,105.37645697610168,-71.57135115311004,0.9300265623059074,1.0011885879993478,0.0004962521574563006
-81.103762544525,179.47958174195543,-99.14757420248985,1.5328333503149358,-1.5913861026756781,0.05404723484264684
2.1186645278344827,-127.02754573732318,-42.5053448939629,0.09795105102154977,-1.0166568265735907,1.9906041572139976
2.1479359419116975,55.71705032921099,99.99840453859923,-0.5028017234107094,-0.6993102283022363,1.9388709698621174
52.51294178543142,-36.559902790482425,-68.69433140669052,0.629174446325202,0.03363495882411227,1.8573866376465147
-168.27332436944175,-156.41987157719524,11.38414944329773,-1.9562615916915842,1.5670900128705352,0.1941689376028588
149.82851720159294,-108.17995828016085,22.978640271783803,1.43549361330953,-1.9648806738724445,-0.7572500073170829
-67.88766159995848,-46.78253121426201,-10.528450107042772,-0.7397417118897294,0.1953921032076229,0.10412551805816506
51.86376333927663,179.88401228807402,-145.56433581698695,-1.5610771409447057,1.3403206926892541,1.434156723240343
-145.98468571258212,-169.35488162206875,-19.59326029555058,1.5369028721510563,-0.43259912803494593,0.4743954669949719
-65.00455846072978,-126.7441770376194,141.60312465421958,0.4884273193866684,-0.17872266325850283,0.49973743582579777
0.17043141703609876,44.73797769130138,95.33826806992607,-1.5172235421665197,1.2533292175555388,-1.9843641812197812
84.86349022171385,-111.72713904516871,13.323919290024293,1.4437760252772502,-0.11016879237026522,0.19200462627466486
67.85530794686102,-148.00495863672785,5.664744736448938,-1.9203452444078448,-0.36174023735340644,0.6413013069257238
-138.07687944332918,64.04008770151077,8.224538471696405,1.78289304769133,-0.9975832528619968,1.269646166467865
-47.7757718886337,118.13596841484912,-1.2251583389961525,-1.409609939663595,1.1647366940084156,0.9981726680810858
135.5971717762131,-82.43687657883444,-36.54151275076336,0.3174682640796149,0.005746048698521911,0.9333484774719532
-149.45850623992925,121.86457744289595,-38.64002870443781,0.14849496965560682,0.9995528367258104,-0.2983833269300522
-139.12029670807544,-95.49671640238608,-160.51264138039923,0.5735633844350474,1.5008910856457214,-0.8537607992769431
177.1269201665363,135.20356554142398,87.9119434006655,-1.6851978944711052,1.6363007652248802,1.599599101380472
61.62789733098438,0.7279398678155928,132.64579206622295,-1.6570667537976038,0.9422483762015701,-0.14554222005996031
-169.76724776217569,-47.07499929767869,88.0643514025889,-1.6923755432333811,0.06416542576089102,-1.422677367904169
-87.5590818995394,-61.936442415232406,20.78319357084709,1.1103688916708538,-1.8075567484264594,1.4095070463792396
80.21594441257525,-113.4781079296609,72.35649138990044,-1.2782052615541373,-0.35336191817362783,0.9344232026311579
-44.05030706314261,33.51492980433173,-164.9681700456484,-0.5071012642104646,0.22467859534397716,1.0389307563129453
68.9360466031801,-140.32406340199327,-107.95291664829577,0.8762447621723997,-1.6144254624951397,-0.4677283251132729
162.43605156273605,80.63252013436528,-151.31220969509536,1.4742038029183493,-1.8160900211383728,0.9746819327805305
4.851846057032759,-140.02067658392588,-17.025212875481117,-0.4062988426604788,1.8442145949397504,1.3959994975317072
47.48115371159531,-45.2341262636246,7.260866066544509,0.5589308277531093,0.47473412644443647,1.249262055013212
125.3287470706154,-26.820176148045874,16.69203409216749,1.4365474822890163,-1.0868033872894278,0.18454403231991412
2.590948359671046,103.88260599650238,-41.55955706546632,1.1246739175362848,-1.3273497888266745,-0.6818827671055581
-55.03505302890446,1.5447952761832369,55.5857320509206,-0.7111719540641057,1.606145456633524,0.22076761105444387
179.37496579676156,-31.533848438740847,-7.3512074141787025,-0.9099968569651731,-1.8137528875521163,-1.453932333476116
58.79905742238449,65.96526950166677,139.64568709992471,-0.20231916159535634,-1.761742420345684,-0.17167632746269668
31.980530207107705,146.99947283939036,-73.01262432897546,-1.4875366320489047,1.26825750277344,-0.9210705054157549
177.02832071765113,48.70421855219797,100.35005718347173,0.2115035609379463,1.2700542964422827,-1.6194051284710818
128.2617211163041,-178.87775001383886,67.06154057577822,0.8752753388613423,-1.065974501929917,1.0192912694071645
64.15452795702043,65.44326886195213,22.11718477093777,-1.6554898452747984,-1.7526476370844457,0.5603622643550277
150.2156838103228,-43.74959582207782,61.7659550335691,-1.9168108240995139,0.09936071430559856,-0.462199834077484
-61.152922784689636,95.86663834520328,16.152016528485547,-0.7447988919547956,-1.5894215808254684,-0.7484569414217908
-54.785989181826366,-135.09673350163678,-18.19611434072243,-1.5130117860511278,-0.508664052574856,0.4575966512783478
108.17992719044668,103.00802351620376,176.12139953853557,0.3394013850653992,0.6422059498891204,1.0518385629598663
154.37552868073874,-85.92153874606313,99.56722432262262,-1.539934128216772,1.8687281208128175,-1.2814043366306844
-6.084577380226165,-123.10674042690505,-83.8519356630532,0.7987488092190329,-0.4960422486252516,-1.500965987427925
-41.41439706932064,54.85549791356948,-90.76766409747812,0.6403976110930882,-1.8865324652002027,-1.971015834947408
115.03040374073697,112.65703933459525,-108.2582642549633,-1.0117812086794697,0.3242828862885734,0.8279468392601825
33.497533719059646,-108.82503989395141,-70.00286450457337,-0.8378707071772866,-0.09841480685757498,1.2281093619100991
-60.998130700357194,-59.67602243474448,78.00632604983588,1.935004266201572,0.7461822614077422,-1.4020407477214416
66.75950489312018,-136.65377597420854,-106.10496450897531,-1.1192989845922474,-0.9806008461694726,-0.3495284159144667
-7.028890051599944,-3.9997345249889236,-89.60219887345801,0.4110191743805851,-0.5500266001272913,1.5503417930057077
46.182388910286846,-55.11487035715142,-93.33865056791838,-0.12999170040201413,1.3444906367014782,-1.3061582410383532
11.665857029839287,-15.486896447432372,106.87064661457532,0.8387595710873672,-0.840330909497053,1.9878160932272486
-166.06828792075922,-157.43064797768682,-172.54222382566203,-1.738194065337472,0.3590756132991251,-1.3073298559809992
80.70963246757674,-21.428084286000598,-19.928055201627927,-0.8839982227065621,-1.7097956854392238,0.9774332727351971
146.25549063807796,178.16715435953125,135.52951128578383,1.840495986802714,-0.04116396984142945,-1.745125638820094
-81.15843193565424,132.91395525924548,-96.55082443762507,-0.8034754352199891,-0.9231523218241762,0.6915230535170425
-62.60665225630672,-116.63917432857275,84.16532971081841,0.34431766255217156,1.9358859739505019,1.5317056524049502
161.56859144778252,5.893986068438608,-5.651499664845545,0.17154389151466187,-1.0031587685493983,0.7881450411113868
159.41390513687674,-72.02232267530201,168.12417943556142,1.851429277927386,1.968586818181984,0.03303263373769072
72.5703682284906,0.7953967729454803,169.29720904942315,-0.2951490821621521,1.5181531851929049,1.085337536860819
107.89041633526449,149.6879600366953,54.45064158635597,-0.37538059456691775,-1.6867930622530203,-0.9762476682149943
115.41099096468093,-0.3333691443676514,87.65239002113628,0.6403201244321073,1.4851553917992693,0.03949730494307868
97.84648615449566,157.77551273243716,-130.5287268166738,1.2041952741072048,-1.792159674087435,-0.5500126649369861
136.40337185538687,-161.1449117002244,-8.1974460612293,0.9015013080372367,-1.076508531322792,0.20120001230180407
-33.99309659622756,-112.2073898226315,-14.457816379862152,-0.8418442105811939,-0.44354793519891444,-1.2252687975737988
-158.85274861402962,147.39953725504256,-25.88988871373482,-0.7770095988214605,-0.387484934712206,-0.36514192884527086
150.49986837612317,57.42861869406627,10.668970579145025,-1.3820200830597567,1.2945200401725292,0.0416247910948262
-61.194913227399724,-59.53356561872383,-78.48815286482728,-1.1388071366025136,1.2007847648758183,0.7995786464590888
74.28929506480611,-55.74535503814178,-116.96518495194076,-1.7321703023858106,-1.4915390294539321,-1.161600043551649
22.57113655846092,124.640572017198,143.5736046742083,-1.2511979551536414,0.8506139216700852,0.40712902459003075
160.2721260717944,-12.671074689762406,-107.50965011002921,1.9880779324317444,-1.0843198899861735,-1.3627939323840685
34.29815929853518,135.45346823457578,122.67213479099462,1.0105428310593991,1.8167678874636768,0.09097871647695577
-10.2701872409379,108.91740662013717,86.29023474524183,0.3291866950810194,0.5760076202344879,1.9984711128114805
-93.6332891966546,142.50845200011844,149.44766778901936,-0.1434155836597215,1.7265841574226215,0.45000692595593517
-157.59636700758287,-146.81095830140114,45.903163770162195,-0.1996025407780948,0.26677817307258733,-1.245885164536583
81.16158540542062,-79.25282289808449,68.68993944174898,1.9034126973683576,-1.4584447572298767,1.5718112063297256
-58.470158421792036,79.39643556666613,109.72991490345362,1.2072629700647886,0.6484099982249445,-1.263741030015379
86.42672274077381,70.29497072470886,19.155707993223757,1.4229536310280855,-0.1797361288117698,0.3912555091531913
66.7666129071716,-14.73706836799093,-84.99541501296957,1.6979718135535955,-0.16996005416686844,-0.07997506510768027
51.10567264125467,62.402629254830146,33.32539084440526,1.4492500305922533,1.1938359694824179,0.8469391013443981
157.67834018053964,3.383312203229764,-22.2245747347896,-0.2627082497093012,1.263561887218576,-1.2342586243486244
-16.55029952962218,-39.08341770604923,-139.66533399854455,1.642766970612331,0.11005367738239036,0.04885818000409747
154.9595378309865,129.73990791357193,-155.1945670405745,-0.7571350791796418,0.8700514881421384,-0.49042678307246756
3.0723294835002264,-123.13214191769158,164.92477186139354,0.47548505846082456,-1.4129520759650092,-0.6839582978629615
76.02089937523829,107.92918738229474,94.99161213742775,1.1781421946710213,-1.231025981115665,-0.3177392118156934
172.42057513182903,-12.811020984686309,-158.66405172332495,-0.9289613371997341,1.6003289270503158,1.5685620518072132
-65.0242432253816,94.21387430690334,87.89595419117694,-0.722382032642606,1.4125008988427226,1.017275273655982
137.7022674285456,-31.71055691869583,-156.62518164601704,1.176176560633413,-1.470557527425755,-1.2099938164093542
-104.26498792754278,-69.64084939558182,48.23315468732022,0.8453305889837028,-1.9148937857188373,0.449413028899349
-84.96859553136088,-100.84340983776377,-85.56149949907899,0.7745682345497733,0.5995855344297314,-1.3085645681866662
-52.69805460294016,-146.80818713630111,138.87450977211347,1.7955170857614013,1.2026856915661117,1.9492929058135382
-7.125033259518801,-5.200792980148009,74.18803179434764,-1.9860522191620955,-0.6336409139744745,1.816878428080246
-159.6781672722134,-136.07612161331502,150.55021214382793,0.16990212471146027,0.6609053633278914,-0.7136414315354513
135.33850301613103,140.91733044936365,134.3834146923831,-1.2709052141094919,-0.16951197152610664,0.9598394111842414
-112.63328173761826,-19.973707369909278,93.24253990279016,-0.06122444088380563,0.8752537512573833,1.6500580560197955
56.56952916439363,23.585213470236596,-109.04787781928067,0.341478630459374,0.3566946037718175,-0.009476822927686257
0.4938449845189439,141.24207846632982,-50.79356459214159,-1.907520895138342,1.471100177223283,0.7585495412944074
27.24162347776695,-147.20410731982392,102.21740269176274,-0.8611761679945396,-0.43329670596714775,0.7317496337744958
82.830806379276,-32.69729332490155,46.64300548754096,1.287310179739722,0.24646424861607708,-1.1384982292832633
80.4654380589015,53.19337429888253,-165.2379587366809,-0.07263694323838399,0.32690837982729315,-0.5225085132468492
164.72280570775155,-146.58881119061598,62.14693194867377,-0.9484404503517148,0.23774302031547023,1.8560710007646977
-60.825689594435076,109.08548732476402,128.25267012427224,0.2541857581922353,0.3111022954840208,1.0373132327316426
-87.96188533650466,35.88450480538148,35.14779193635317,0.7472617550240379,0.3565929966270427,-1.2780015511959228
-52.180366004234074,-167.48201183355607,165.24951446999415,-0.2454716855048762,0.5663206988122327,-1.184606468097197
168.13410894475038,-21.594387121415792,-22.89727745062615,0.39177698488877555,-0.4509782617227196,0.35670548989796647
-168.1970322119182,151.65429983908683,-58.32807326349729,-0.4186147971227334,-0.1360363098048185,0.5246218779366632
-82.14858240096721,144.16803555948064,-158.88254721936283,0.23738035839073657,-0.6251451457492134,1.4543347069124892
55.36238408412186,141.46268047202244,-59.69838156734549,1.7748256978711274,-1.7894360164909204,0.5352794211819796
-20.463767388339505,-148.99026990987772,70.48986492970374,-1.2648024118226697,0.22690357567986075,0.06985996582223564
-107.50067820095322,-104.64236335301183,69.52920360221049,0.03264224404370797,0.2908108264442397,1.6994752770575108
-103.60252668788688,120.96533238120196,-37.09964399450499,1.076977564717001,1.0936640657084578,1.0257875816917372
-83.9175318227561,108.97899070342066,-61.98581959775507,-0.10137898950178537,-0.7096435949682633,0.3791563497925652
-20.668194747999507,44.85901333126532,117.48437641891257,-1.6670631940275036,0.8081744097886707,-0.9816707300730814
174.80210783871786,-118.39939987251333,163.86317354896238,1.6535609961323958,-1.994076907561607,0.00010691340855473186
64.38981255970609,-129.38074881511048,6.555584054887987,-0.5667111432830763,0.3165206044588649,0.7967022883805357
-144.0992631364282,-152.84581728708065,-109.03734129952014,-1.4262577122782036,0.5542159098381476,0.40858952338707333
60.31692194875339,75.58474899019595,23.388987313052894,-0.6435856717948556,-0.984000476208418,1.8806142218852742
-146.9092684942604,143.39989999150072,-171.84868309481655,-1.9860261918957334,-0.4055034574680345,-1.017918192230383
163.79200353913478,79.64619743600764,163.39755449512796,-1.813780073471143,0.8189344058535597,-0.9256724630892132
-68.41068542523021,-144.78169958072664,110.27909950753906,0.09034977795963206,-0.9962435352752177,-1.2087786619795162
-109.90924885290102,-176.04118353157375,1.9379754078960616,0.5145729274618374,1.5703821442845465,-0.040950019253762626
-163.8693379371216,168.50856616785825,169.46324903630403,0.6358814430062791,1.4313055144317586,0.1408841010364883
-107.11090251007498,-178.08948917102416,-49.17195870768151,-1.3912493845196754,-0.8825039046561391,0.18647642938367204
-133.6865553085928,20.366002237795357,5.669627303931719,-1.655285372016631,-0.5452172150288783,1.2991148436700617
-35.34715493662807,-109.51684285676758,21.873240816367456,-1.586531097601532,0.20695729103835614,-1.58694331127787
-128.46180143485,-104.53711684568671,160.7293740722011,-1.958792587901356,0.18920818471703305,-1.3774169282617477
-158.44019783352365,-137.60249300835903,-51.47727677009817,-0.8955639534797291,-1.5767920357507434,-0.11536332596723442
17.910007410353984,77.94999026576886,2.246270734529361,0.16412457482427545,0.8311582826151422,-1.8534227592312171
-169.27227482621328,-144.23871384043852,-24.21433406910515,1.7852991860963932,-0.534142012624883,-0.7999913296077747
-88.98652306135175,125.21614693673087,95.34299665719175,0.5189285999618538,-1.931965344349655,0.8189667681179942
140.70414435104811,67.05592892937781,34.53023781947459,-0.4099789303699213,-1.1178119289378015,0.03859806929080012
120.67980835314711,-161.27483752362696,136.60498393647276,1.3930355861407215,1.4436524230428476,1.0941646720531941
-35.66879651728402,-104.18649768383092,31.148132556593282,1.3459015258827427,1.011060046075618,1.9590607887258153
128.60859355641628,152.5996849134633,-96.07685233868838,1.9448515060025522,-1.084441661811487,1.7328748925737947
-121.10672944304831,20.935109295650307,-144.63911539400172,1.4862447020701754,-0.5618042531512133,-0.6659285358789706
19.390524341955796,-104.27508661992255,84.93093294014375,-0.19446162736227857,-0.061576355834776386,-0.6933559734008665
-125.87744714334853,-3.5192886853963046,-9.2126206328916,0.64493029515415,1.4418235706594493,1.3536701551115615
7.031594241922079,-127.05559085480422,-19.03897463063899,0.26141397658026255,1.4272344353409552,-1.9992798469418571
-112.90378990333762,-177.95678886090207,119.88742342845723,-1.3348662891353902,1.8580371446296002,-1.274594176260368
-18.07768386074835,73.77635066119151,-37.633743418536596,1.180335378108766,-1.249958611584352,1.2286972220515362
2.1228536694520415,-16.17922619355383,121.38760678036004,-1.8103764685583728,-0.6068459553742906,1.1254925178326354
155.05671826333997,-162.76517054865525,-170.95871559380367,-0.2074872532297949,0.2963242841562881,-0.8977646926464495
-4.5632281736227185,160.98742952644602,-79.75623612889983,-1.0944955068585318,0.07956779321221585,0.47601397932643064
53.74785607536464,110.20852350120902,138.1886044125547,-1.4833060043071744,0.9992364303438741,1.8662690363508925
-72.95895351869983,-99.90054706090118,119.94649213679287,0.2870204036498283,-0.30316849460567274,-1.3872416728029036
-7.235007165728234,-60.116334377839365,-67.76129308462237,1.7508411361773617,-0.4453305163914165,1.7082534157466238
-55.39596229020108,46.972846979263295,97.57800420451451,-0.43459180573018763,-1.4302239232435272,-0.6643508719825975
-85.4689625761249,-12.729579569739485,-14.587619566250055,0.052881356860319695,-1.4460345896852531,1.4072804103816887
-64.55958830238689,-59.725736637966975,28.604725561145358,-1.9862687430595538,-0.3079335552024287,0.8159319767170059
-109.77692419403084,-165.59509521627766,-62.389077952418006,-1.9562647872984344,1.6742768633511904,1.420890127767699
6.476018290699301,-106.43349883058015,-75.5422929628416,-0.9914737331146597,-1.2908395738015397,0.7557753671460805
73.34327949677643,-168.39921731910124,-120.92697073320682,-1.2277576789254594,1.3145478653159417,-1.4060958861500783
-122.09441617860168,106.15711949434933,132.26344373949814,-0.39052361526200663,-0.19227937829785358,-1.748622782046597
-71.93287999404278,22.649341321536497,100.65567813639143,-0.4934685686859419,-1.4685624772923727,1.7828140120443647
10.232120836836259,28.99191436896845,-126.15392324108905,1.8157703899107127,-1.8486600943938511,0.5437679336858672
48.800984972520496,124.20914264300171,-45.15498939994066,-0.7994871429017878,-0.5824040634323708,1.4597149342270934
-122.90655186135376,93.64431997425669,-87.05241026945016,0.6817669898730516,0.09464549087321705,0.4677775394836967
-39.78243058767859,106.31517278715029,-64.86419437415174,0.35184687498007916,0.9286585016285334,0.013255322424191363
-40.31943679230227,-134.23817103390385,54.13116236005584,-0.23342134484401766,-0.09993497732365952,-0.7073851235097921
-4.999199100120251,-171.49131523275088,133.66237473758042,-0.45132730573892177,1.2187823803564686,1.358426671236014
-158.0492026428434,-114.61809351130191,-132.87600125006136,0.5616483820353837,-1.3454590249125253,-0.35839056882468645
-83.48615893473634,-135.1434958270526,-25.59839560392348,-0.09966245214487168,-0.3971677385687755,-0.0047501246643371076
-137.62105094969104,16.295052314536207,-35.67738480016152,1.4627589611903717,-1.114403615396983,-1.8468498269008653
-139.99797017326657,-82.65352227826327,-13.725353909725754,-0.9629044944944707,-0.5252495017483056,1.0029223931655658
-18.568858257065358,98.64646035759705,-159.6385933009471,-0.2359617252691133,-0.6044758276954871,-1.7677952073009537
-108.28605395400184,-101.27202069775102,-164.23172501300496,-0.2802417542857851,-0.4266512287778714,-0.2869939083232449
8.805165472409612,5.210829285710929,130.23409762710577,1.9273494250214291,0.5527140680320968,0.25795374485649125
60.80337263539906,-9.732076101804012,101.77218833582509,0.4087918892400708,-0.9479802673028024,1.5889966924674082
-50.22220273101473,164.01314668263484,150.50235598135777,-1.730829489716947,1.3033898739864238,1.7437790541838765
36.25150381765039,55.479526307191264,-61.413883904846614,-0.5490072444290561,0.6336457729654921,-1.1613501729624498
143.88988863939443,9.426071522785008,-162.6725298112994,-1.0480498321636906,-1.1810971021828434,1.0287898375246032
-10.746865193992818,-156.295721528804,72.56371111881847,-0.116769466131188,-0.3044568879849159,1.3141723270086323
-33.84366238842736,-76.7995615868914,-108.16252344320885,0.7396155238701154,-1.8005544698244167,-0.03687599911239481
48.70517376947785,-98.27548190559908,57.240580568960866,0.35315206723087567,-0.15326674277365449,-1.3809005337160487
49.20600098014717,114.68011823512023,106.71015810836906,-1.7829296581960468,0.9607294145457441,0.5474914922024805
28.854625680302576,-85.66161944075633,88.92865375658272,-1.3157360060469183,0.2555635348558978,-1.172655730559307
-35.827609897358485,139.0335300679459,-135.18001077425828,-1.0644501691273311,-0.8862537066136413,1.5125372206814292
-5.194502074773936,-89.9014458820539,-13.471722879361721,-0.3406957627313423,-1.4916213641887972,-0.1404823388838805
10.29451187000015,15.046595495063542,-0.5751864582435076,-1.0972607159352084,-1.5743389867959627,-1.1896278171689554
-165.81027838139013,39.51107753107985,177.23356291367247,0.6180407126827205,0.42819581525786,-1.7810585641108965
-94.03816155336683,-174.80886000995537,85.78038117539859,0.8342547696077651,-1.9152454182888254,-0.25608028704091534
45.170968565868435,126.32745224192911,34.537207324350646,1.620926559733773,-0.45639450795251735,-0.7517422795797062
-117.83117264872752,54.73707581415732,92.89185727358137,0.1261978766044014,0.40797250389480677,-1.0013047899880614
177.0014114994383,47.63483389981718,151.28391925260917,-0.4927858545753021,-0.017359990931492764,-0.7694537800841195
-116.88501020278856,11.373765823085904,177.22312609418032,1.1913753617160383,-0.21097235716098917,-1.7718118894300376
45.15040436074412,-110.42063854958349,117.1399242607518,1.302986628477902,-1.659414383184401,1.9671235968846341
13.007741713137676,-23.115257120957665,-16.38746936081452,0.12229144064479769,0.49466553981510764,-0.6864735386434191
117.9633711510287,110.65846433509847,136.64419076637625,-1.7979172558455314,1.3553780627092777,-0.3512605719365358
157.14765414345106,5.335171768907088,23.39457768574826,0.11677382003678449,1.0979999765882722,1.5841311632500217
-50.16253578651728,-140.13784244180854,-149.45873271518184,0.921456244317107,0.37107361767284397,-0.6454098357659408
-76.36231499496394,62.26289820846961,135.8308743817327,1.1701753229706884,-1.2065912551328188,0.5449645399580891
-122.61709739819452,109.01674976592864,162.2974211083735,-0.3350914524616777,1.0042974465746664,-0.8380674980610312
61.02579819653471,113.46683717408592,-91.37373842664407,0.9280164772456749,-1.1861837960895971,-1.5023286191506506
139.60318926529862,88.75208615852699,63.530058381085894,0.8291644416815132,-0.7314091226087678,-0.022719420430401538
-126.04705861757142,-17.633235541281493,-142.73693894297273,-1.799018952874639,0.6849936156789105,0.6193560547023824
-122.20012606927682,-171.1903848613138,12.431962721864181,1.9775200574864233,1.0956086594699754,0.4612811106657566
122.67267348168218,178.79711939608927,152.6860481854514,-0.5806872239334311,1.6599630361784117,1.7153579220985589
-132.8152485025218,96.58574366473135,-75.98821031178628,-0.07705674988115607,0.499514268485552,-1.0215039511825998
-65.04994468497989,-7.685795355662123,73.88083836441237,0.4668414823459619,-0.6003881466172172,1.5686426598714434
-31.89782369849857,97.19787692715852,67.21723755530397,-1.3665418535942884,-1.7371433017712041,1.6602822621277427
134.04887141740454,163.862176619872,-173.95161683710577,-1.8968519714567313,0.9379493427478676,-1.3508607217820372
-103.79584982866501,-114.049915501151,-125.39821790660244,-0.8157207804275393,-0.6799948193937633,0.5923424961950698
57.0400223920804,129.44711274565338,-151.18791833496965,-1.8863226628538978,-0.10399942712741339,-1.551135015924292
-170.67121819437483,-15.344637414351581,-79.91763219757071,1.7351553499277403,-0.5881501123222201,-1.0603998438514708
-132.31833952083838,-94.0920424581376,-22.86679489675811,-1.4901985913958575,-1.723509493119702,-0.5147098981864433
131.66164797051783,-167.12067926257737,118.48179679611792,-1.1717204901021834,0.03155662775809631,0.643810474996855
-6.110488231824235,-139.90165676650335,135.6429370050634,1.0381293896015116,-0.9841952286323847,0.9187202861350166
60.72925561394206,-6.3481177526316515,99.63195299406703,0.7026026081524623,-0.1479157689439261,1.833097976066815
127.05717035477227,-25.668138714688894,-1.985889811020371,1.607221392638023,1.6935499571660606,1.7672304603633382
-109.1572805969671,14.709274504223856,92.7668242410112,1.6301330398538,1.3409141199921035,-0.48203094231506727
-161.58749289113348,-30.979656412298908,121.80816433909985,-0.7087320360949123,1.1879773467927364,-0.25026349075943743
165.76736055794896,94.36824061228253,-96.53220188677145,-0.13709282166011905,1.4690853033955413,-0.4449974227047333
78.72617560493711,169.01594131074114,28.329591461104826,0.0037892486830890526,-0.7071409703447413,0.827558370110169
105.07308421868623,-111.45490037577396,-90.62131332680873,0.12266551978009099,-1.4386374298201967,1.3897383955810771
22.28065674447592,179.60648675349393,-26.270532230552476,1.8515781051133722,1.0736992701517658,0.17245960442374164
-56.16728318868584,177.164798019371,140.23807936607636,1.818956529914256,-1.6429301940931507,-1.9238830314371924
-160.9095845681365,-30.362358664035895,35.16963881900327,0.3272240823794039,0.4340432106613932,1.4352157169152608
-33.34938459355638,-102.88479060207509,-120.50757319569789,-1.3445739045734517,1.9177397823040292,-1.5451034039339704
-120.62376127215813,-2.6104874066841717,-148.56231205442757,-0.9781407660554655,-1.6002303217299052,1.9570813010006236
139.58288575536466,139.7930368448096,-94.21688901937911,-0.9937611700423612,-1.386744234601971,0.7571794206803992
19.067822214460335,163.5217016344077,170.242749700388,-1.7461230343655543,1.3218633824736674,-1.6062039397182
-168.47791373093975,-135.57816312210002,103.53239052787359,-1.3595959044690469,-0.6821803415167533,-1.31162470188243
-149.1223067759741,91.76194533727784,-173.55652451967424,-1.7979567487613153,-1.514790505396435,-0.04007555627346315
-107.48325221168857,117.51489001156119,77.34962602969023,-1.1803907845154482,0.7169618825632735,0.9077981916906217
171.15331389736582,-43.87885591995672,-65.4959119987664,1.7408397775659905,-1.4287768092897455,0.2417964789092193
164.01765224285356,-98.05975711071304,126.99144490733204,1.3720355452623871,-0.2645319788439564,0.01880443825121869
-121.87517006720839,-36.79968300287413,-99.42232267785549,0.6773376341140294,0.9264949320781137,1.1357958791568317
-140.42426541077484,-133.70360383270793,-21.25725355430052,-0.727285092997159,1.6630708410283437,0.876493510405354
16.815642027927396,-129.4163111381398,178.70811421990226,-1.7205611163091832,-0.3957903686905899,0.5903557025265584
-105.17282140839878,-32.2062215222588,-112.12615807505723,0.5705232278301606,-0.3484599076990582,-1.2830694905435136
150.49287114860533,24.09716245213059,-97.21123411221205,-0.6664123738443872,-1.7636767588034035,-1.003204342360584
-1.192824712082313,9.002736526093202,-54.60800868779168,-1.740949502390389,1.9111340444517202,-0.7595936244009613
-123.31997751447966,46.5009415919254,-94.0455717942838,-0.22565689626427332,0.3385161327777775,0.3057234607715027
-129.84677339045197,-168.45064493202122,42.33095827022086,1.4930038906256944,-0.30949905251171694,1.9021447448637399
-121.45366821879401,39.813672975640486,46.06479764534555,1.8422429138548875,-0.3674333541337069,1.0665949105623063
127.24255375775613,-89.2961601881608,163.2420158118407,1.8617537097833168,-1.259367692915462,-0.36611871069167945
-72.48705691747635,63.257397594165866,-86.06656925082908,0.33969416812845754,-1.577147053828225,-1.322880528731265
76.48259028260418,41.210673371886884,2.904900247534357,-1.4346163980630573,0.5237252615446608,-0.0006247061992583625
-55.609817131388624,-9.30149993183258,2.8138983948776115,0.5260531477530654,-0.44627939273453787,-1.034189415202428
155.2825975434792,-37.20386102211296,113.84062887224263,1.9486930665010895,0.4990534512667075,1.7656314884632076
-112.80658153369457,139.5137890791861,-111.19594920553757,-1.9315122873099813,0.034266597239795527,0.3868653668559885
103.63636526645314,-74.51906698563846,120.06157614646327,0.5207329621094727,1.2563182716745946,1.4985767227814848
-158.44549366650818,103.51987899862661,0.4612337121857877,-0.15865721044077397,-0.3209271662144588,1.879022275600044
49.38853977341205,-32.23001937526399,60.48870329561524,-1.304201472572998,-1.1743310796985003,-0.38042415958826625
45.944511212544086,-155.91008381930115,169.90818954826955,-1.0772064311058056,0.799566594174403,1.9316047932935736
50.862992135180576,133.47629752859598,-6.693025386985596,-0.19415417803464496,-0.05271882231230185,0.524615575910409
-175.70445353739024,72.37624353242248,125.68303795301682,-1.615491428711783,-1.2839600749335167,-1.6982402200175764
-23.54586511201927,37.093010281579694,124.06799141432361,1.6545914451470556,-1.095513048329026,-0.7048485890337699
117.76359634351229,-0.204128250472138,160.3848905979229,-1.3723919947948597,-1.1977168861523513,0.7979236421754616
-41.079705067844515,-21.87194317355906,133.72828391957057,-1.964016315209674,1.9571010133821374,-0.9141526328167116
-16.146920654274766,-34.30782281867636,121.39086552092999,-1.1275371681530384,1.7552252709873155,0.8594032329091821
169.75788174396706,-177.16348420527936,40.105824151304546,0.7703316999440974,-1.3235955554920404,0.7740558939742614
-2.822761602480142,-35.01796023731373,-69.7014766574248,-0.9038322554047808,0.3164218638779963,-0.31570642189112386
-120.57351520171666,3.085123889503336,-36.815219899894544,1.5966615039189098,-0.4454318753031381,-0.7172289495413873
89.5545079606145,123.30746060360781,-53.66924284208652,0.46733484842132134,0.2690446994581137,-0.8374741944399826
122.02985492173002,-154.79621161097393,-1.8367141570137164,-1.0106356240502485,1.814862466273194,1.1313574579429768
-168.67467826421222,115.23842936535016,23.58633466544009,-1.472249360089045,-1.9462286389995644,-0.2686026982890759
158.6981036454696,77.61612140395732,-69.07257300857705,0.8673260046217268,-1.4775650744463564,1.372631195418541
118.34601964623329,-68.7233581263468,-56.101042306462915,-1.6456689070481794,-0.2084363408014127,1.0651467009337954
41.61540936189556,179.56535883757232,-134.71176658201102,-1.7189874724627083,0.1035847940133241,1.3438088882297325
-176.25364425285466,-16.58313816623749,-140.1380127718188,-0.7574172886139228,0.4090390773214656,0.7638606080206451
-143.6320732101417,38.34572301755688,-47.5947496208297,0.2605676721696013,-1.9706628561980866,-1.0672858251615485
-158.9749661803486,60.949048153645606,28.693240231244914,-0.7835481438179581,-1.4872201141070858,1.270550225326048
6.556269605699896,78.99640544715277,-97.58283689669985,0.5485761748561542,0.6907441442483782,0.28452464869281746
-47.92877115000826,-156.1664100310498,136.19277117433336,1.0526036047663418,-1.58975098597312,-1.3344146762196134
143.6270140444675,-13.157403118781929,-51.276565905791244,-0.8027762464405215,0.3226023873775432,-1.423630392211896
-10.498361512598535,-140.12256293422658,-44.44837298896485,1.066336931207576,-0.974588879329588,-0.6307761168527888
75.53147011674412,-167.8557081987872,62.972394490364536,0.5873657453149468,1.8917962221920122,1.8030197425116974
-74.53497562723216,127.61357222733778,115.50925792347243,-1.5674795736758909,-1.7891313780222484,0.25258021675546694
-41.20567982633216,21.787069876942752,169.49139560379842,1.4791287333272383,-0.5931480449411297,-1.1283143782759546
150.6047713631434,21.114752989801502,-77.44138197540045,-0.6479918713767825,1.1640587586198796,1.6710783192056877
22.554223175717652,87.90050717850539,-28.347807989388457,-1.4273675687946827,-1.8468305931717506,1.141997580488571
-87.15628962655457,171.96157980691464,-46.9716943801877,1.7156800960411065,0.3737116949870227,0.9764857511568383
-2.237056414161259,-49.1762491176554,-76.19731926297112,-0.43981127745164494,0.04607791357657964,-0.2222748740794649
-79.22288394396723,173.438705730582,160.31657055927082,0.8478288536695624,0.6097768245137831,1.8905257771935542
-94.03210406514813,43.103193798218825,77.27858904668113,0.11271347672007481,0.6318542031094703,-1.868504965234223
-175.17609363756964,16.73059958232679,-168.67779920494962,0.6906215544936183,-1.069246078975831,0.7774377818297546
24.21108068004159,-130.19705129098878,-43.22545580099123,1.4703582032540718,1.6078308327916018,1.4482353248212703
-32.900964017184975,-75.76820514409393,53.61806669096649,-1.1840283410105408,-1.5995162461717238,0.6069017792731213
-131.65941133588734,-47.30232394514053,-89.33402315960879,0.553752010321805,1.4650082615385442,-1.5550976668476881
-163.88880427815835,-28.223852719561535,88.34920780812985,-0.0981557679495535,1.006083460996828,1.98504419674273
30.076858103094025,60.65688737943799,70.23394237694211,0.04413035854791536,0.8133888843306232,1.0163953895704032
-76.95326125209414,-3.939134808425564,166.54834661048045,-1.4346416388063,0.19885642696516603,-0.14072306012961944
113.58427589027093,-60.03902648391414,-137.68292294098958,-0.6112831276127784,1.0785555102732047,1.5694758274060523
34.98331520167096,77.75157484069211,-80.58518009944079,1.2499505319339836,0.20839794983967908,-0.9718287999585686
144.4869392939167,76.72924681579724,-147.7250032996082,0.6904797109646879,1.7626842874974775,0.406918640394748
10.870556419419074,152.26438593211344,-132.5442147634016,-0.07100308034316205,1.156548412953085,1.6523491411574986
53.289100011669206,86.77481415602296,179.9928014213562,-1.7868544611125863,-1.3221915750975377,1.2682020766102866
-69.09173636629605,-17.296203972810957,-142.4975957935857,0.6571562412006866,1.8739359827656936,-0.6180124159123435
-71.61125267821959,-119.67628983032591,99.80077486818476,-0.8655078457269068,1.1808864213481427,1.465822247847702
-122.53106656211256,-128.25224869773555,54.631747659944466,0.24974321217489104,-1.0339924139010797,0.1795998739137752
139.71470197678678,-100.75518365915497,-75.5198325267384,-0.7860480183723135,-0.8182490691612463,-0.49066643933800735
-146.20159820882324,55.84929134138116,-169.41670407501866,1.133941504858826,-1.6251296295508464,-1.7335715988971776
119.9595907034876,-5.750807829253631,96.91322988158436,0.9497748107594668,1.0948941323169752,0.6299149052988535
-110.41745265482149,-47.31401733889862,134.68110576238,1.2505723677719218,1.714893084434347,-1.3092241710998445
-140.95383693003924,2.4430328167736377,-127.43111082707641,-0.5925095638443243,0.4216997341861668,-0.6058707630403113
141.88014457367143,9.70007542329796,77.73250389728707,0.017223562456135877,1.9992268708086192,-1.269437234668013
86.18955825810565,7.444304323294972,94.49104843610377,-1.5689185145625193,1.4116777016220348,-0.8208011507858002
34.27653524452259,-34.97269308566976,-92.89003161941923,-1.54859775385754,-0.07042517821134187,-0.8041463662255728
-83.80363329993678,-119.79620635935979,-56.913433206344905,-0.9965197513882411,-0.7768242516202322,1.9163261289977687
-62.74223681410969,123.35893987668777,-65.0866483987617,-1.2311720233248917,-1.5667974992166385,0.01092497514041968
103.6737377037175,-177.39835980887779,-81.82367777590483,-0.04069285327539918,-1.8088259461954035,-0.6993566502612625
-78.26390705496759,86.88300159902849,-0.9625872531040898,0.8270058179030095,-0.9246391752072589,-0.5111342102864422
132.70166392173473,-147.181755491766,80.60698278011876,-0.6687327595296759,1.3748214783868615,-1.6305199982654606
35.314644889823114,139.59816847035142,-156.81739858745829,1.1324832426724023,0.1409851316667572,1.9700621858777048
105.76352551985428,-159.6554182323561,158.5592259416013,1.0088862373111303,1.7359147924901617,-1.4844820346954983
-29.309543266830246,156.64649599049352,-176.81055755313378,-1.7638145104352128,-1.9990560698507638,-0.7322445416363306
-79.89150961766096,-66.67197605509479,-88.21656139765778,-1.4428101869700374,1.2330454518550766,-1.249072997985309
-142.71747272256013,-130.62474700841062,128.0932359899336,-1.4098333890840267,1.9347689347286692,1.1209764055157554
-176.58469488454543,-106.87491243817341,-171.45340732787292,-1.5880323773389144,0.39434731614237606,-1.8259895666356365
118.58060301927497,-135.75044562375373,7.209495726543707,0.07048183299430066,-1.3831978214528067,0.1923663226867176
131.97593147409572,-89.74256342032254,-35.22196261836052,-0.7394886168803314,1.3274038538716568,0.4596958311933963
-87.03526774303774,-82.6395289614648,-62.55394324236187,0.2596678128637975,0.3878632582518424,1.8174195109909568
17.49864813931802,-93.13330123321612,138.73486289840395,1.648630884149243,-0.9402743847626138,-0.7892004049172745
17.373417160418285,60.27958719404219,109.96636263785467,1.7783635739088437,1.224763639625479,-0.728653016165643
-117.05156521448781,-79.5221635886988,85.16815353518399,-1.1081705810149582,-1.6669520746641586,-0.8526458537524064
46.22429791167255,-33.54152764552401,76.25130483767492,0.1839656553037412,-0.7445262111417827,0.7328821013360556
140.87139048889804,-23.515216318202476,6.091564417040644,-0.8188415325615352,-1.728041353653015,-1.9381642794382214
-66.72512883047169,74.75727841835783,-59.65657478312487,0.4015889603138114,-0.08142697257470255,-1.0294692376440637
-75.7631599114013,157.98494985155332,-151.58322604839657,1.1865213877507377,0.4155192745401384,1.3454958630392495
112.71455540672804,-99.52151508967334,128.6728152849612,-1.753074324552884,-0.05155554463116108,-1.575175371403522
129.3684813737982,-161.89135120281557,-48.2610693709058,0.9882959238099911,-1.1763261728777765,-0.4779318582932244
85.23089529708722,87.15278852444317,-67.2324080234537,-1.385792811949575,-1.776092437010408,-0.4994557835792466
13.20989898706651,68.31421101883359,147.63970562511906,-0.6930319890915997,-0.3149798133881392,0.550128521718869
121.09288053610948,118.51548418560327,-81.17183329131745,0.27884917600106585,-0.34196963244092915,-1.1651512012430123
-136.84410066732852,149.55861839681472,82.87242347670423,-1.6499113205303755,1.2500898881557698,0.788818722166218
134.92882825807004,-60.579901224213955,16.81259225415843,0.036079124572634846,-0.010274428763083598,-0.8784529047634657
-35.63909297602814,145.34886917989172,55.338073667729134,0.8319505195275041,-0.6271147807411008,1.3006289784975333
-7.729918924196738,61.88988847638947,-0.10139245835199517,-1.2016977549021925,1.596420874381066,1.5753628794198833
-9.75012425242744,-145.79359562187958,82.74031143329995,1.0838228662904386,-1.0506615213028745,-0.13262864880676561
-71.9252591614175,-80.64130052484701,-67.62148689554432,1.1992244219116075,-0.7384753159840365,0.7359738533826379
104.51790070800695,-148.79907516036528,41.595927311813625,0.49564677390629486,1.3473268329122954,-0.42697496367379184
145.19992729981544,94.07258160940262,123.91958755200795,-0.4748950120397879,1.6978717068571472,-1.2244947038757075
132.6692671538121,0.06971972057704079,-101.92299803480172,-0.8577640602280021,-0.7519926850341476,1.1079072569903023
43.42424247941497,-69.83898445955428,-119.00969551778408,1.402277657802784,0.3741741215231267,-1.8358424954699646
66.33106767654618,-52.01169551217809,81.72485448206407,-0.9981883481881311,1.2502495059181138,-0.8225108096636529
58.07685899842997,12.499182932537877,-65.54268529902313,0.12566266451491304,0.8329913865932572,-1.022837534982945
117.53883650097828,76.7458176817945,-49.135483950135665,-1.832086532238316,-1.0620446395347405,-1.8296272840600332
-127.32159191027485,172.07457209145554,-116.77837586573693,0.9430045493371133,-1.1413109541124697,0.6149448322130535
-26.336873112737806,-134.3119686748153,-92.3540812585257,1.9581913109644167,-1.5657263171248763,1.255742861850544
-179.74948619093107,-4.862791272709984,87.8438465842496,1.851450708736075,1.9885284374766456,0.7948120236112697
-15.194574685067721,175.9400245470021,5.683569223085726,0.22503194701116636,0.5911630962947694,1.387557317699259
62.69956772285505,-159.63150997912567,-71.67433179548985,-1.3823213752321188,1.7420329625908413,0.05690581072721246
-40.875401071690845,-177.4992451505336,50.54024977707459,1.3001361747960418,-1.5770985411693585,1.8133988916380024
-105.8343652289258,96.48000632591027,-151.91366828304956,0.8738296282648452,-1.108376555826864,1.7576641181522965
170.56910330065074,-102.25329026697344,158.50982341052895,1.660816083867322,0.665297947847634,1.5129595680186356
-95.41074169925284,-124.30726713295165,33.73930939666565,1.0713477693524576,-0.11841840040596541,-0.25010863375973935
168.61672296674732,66.66193388884193,107.14854845386765,1.79729401531934,1.0828862667279133,1.542847242702769
-34.97150836304567,31.720368452864705,-125.14200163929982,1.8865747076088843,-0.7757495506818763,1.5085842504601983
86.37284460106645,-147.47597551841827,-66.64455472094181,1.4711069768695286,1.2697793544182843,-0.4476288349733468
102.39057861695107,45.05249335054097,-152.2197019299926,0.4600814186327562,0.4429506950339652,-0.5277289424644538
38.158468511091854,18.779242475966782,-130.03600270769812,-1.2574032883596171,-1.8303521164746086,1.371553921205309
-82.39126692840094,63.48804136849901,102.57827695365035,1.4520519507148149,-1.7631435949029584,-0.314220418621709
121.84475999351832,126.5439926617662,80.81618915934007,-1.8682722454697203,-1.3995141185586797,-0.24596475998787337
178.83760379150107,58.277809048452355,113.07516314206197,-0.24948889744128344,1.8119789753427256,-1.614805462049942
-50.061018774038274,1.2402662482368214,89.08407422986318,1.3841832064242587,0.6560833043503065,-0.41119920237444996
121.78060860470276,-115.3998115803953,-174.4007728601089,-0.8965372801543663,0.1556047741069615,-0.24846779621696546
148.75039614789858,50.03990479272974,-45.6281996064875,0.387637829887995,-1.9647636643252269,0.3070907422937377
38.34266941226903,161.55734679204113,156.45415468000868,-0.7485173979775213,-0.9425634073654359,-0.14367805024471725
35.13095711895713,174.07614350460142,-151.69285303506342,-0.41338694704204704,1.4822811347949347,1.1646949862153568
-81.48421966765503,-154.5759195851403,162.89316833973322,-1.1127057580213937,-0.1358701713161481,1.268788293952551
-101.29911335207753,164.6973498051958,162.366068766255,0.042457267367182805,-1.576954915066696,0.2333652243721791
-15.500526691132023,-117.97086191393181,59.76604820744873,0.2593417747077691,-1.7358250160793585,-0.36122219302408665
148.51857493126118,164.96537987306465,132.79996321754254,-0.790479947351105,0.2794527142300014,-1.041936821127377
-126.94684302294533,-116.1588485347074,-136.84884213254088,-1.8800476678226956,1.41514736525431,-0.5966561207411427
93.1623951239498,63.989988050399404,-72.19010186506829,-1.07958668800492,-1.8224793363391019,-1.9084002484741456
-15.73049581689827,168.57912471660114,168.29908953570327,-1.5721205201164414,-0.8925484295274533,0.4143558380324266
-89.6143618998135,-88.66596663086229,179.17814199414215,0.7151033752475779,1.2059397162796723,-1.6961663575945867
49.46092316669433,26.667757688883597,170.46397205906948,1.6891404993382708,1.3789097685476106,-1.9879213796350457
82.15775695570824,55.144332672776784,137.74009063550244,0.6083692840233796,0.24095511782944534,-1.1931503244653947
79.78410167157494,6.764826648037882,-178.83010131865151,-0.4543718222092128,-0.36328825900669415,0.5866304059296712
-20.63739011298719,-40.14090610345221,131.3271241520684,1.5124022276749152,-1.8521400667162484,0.8089122576074308
22.073167675193133,-152.84802699717943,-3.381129579107693,-0.8325694396925414,-1.0896892512329477,0.11505456697824767
54.23412662300419,162.94181352307436,-175.23686619120795,-1.5224679664938883,0.08350756048216779,0.9995027528686742
31.37111405129437,-133.03511736643253,93.44986355898038,0.629802727569976,1.602548515149607,-1.1583578494930697
153.9015046255539,30.992560220317728,-42.66075756035039,-1.8177312544620543,1.2416148507810298,1.0655722183559573
-121.83967790264026,48.95218672557948,-142.81615935554635,0.6596839593844042,-0.5059456631776742,0.1409128252083347
129.11176334136604,34.842963315691975,151.37266709934823,0.646985945620028,-0.4136424448158387,-0.959870251752232
-112.22079868410046,-73.50752017798187,139.19635849830905,-0.4678453517733674,-0.24313495339970803,1.432703245908662
81.11627507828632,44.1685424659446,83.85284590591772,-0.19480833661482588,-0.8125088493822208,1.0050201115573838
58.16986629696507,-11.548563805989659,-166.57198579164418,0.45404646038424,0.877479389365218,0.5077253281867291
175.30169513361216,58.91196184837702,-85.72146012486603,-1.7669579948490193,1.2047651474324845,0.8210453005247231
70.76018256819881,102.63083689437451,100.84467853432704,-0.6586729641934213,-0.7097937606057241,-0.12067836605698323
24.235636497257758,-130.45692888279413,-88.1749688399393,0.2613907090889933,-1.0428368739908,-1.5113759189771998
33.24378740807839,-26.610148144244818,-107.95892555513484,1.942457078441476,0.24185677982808595,0.6604472320511237
97.04669445541339,-50.838224659343155,115.60158754031607,-0.8471518077162772,-1.2320141013707238,-0.4930135016755668
-143.82497665015305,159.91633556168574,139.60165627494388,1.1551880192735262,0.05103495075634301,0.21706692797028637
49.749041894678584,-154.44965718553647,-76.18144546469073,-0.12907820553638905,-1.763288540644877,-0.5274616041161617
162.06076962806094,-1.0241152067167718,87.41841397858423,1.677244156538149,0.22755966191128874,1.634672448431565
19.58015700383467,-84.84163775674104,172.336806084734,1.3859651835423588,-0.08472214382030119,0.5246792375461924
-42.97301191457305,-117.42739610424735,-129.16006403853453,-0.6840850372566418,2.3674644653581822e-05,1.3176031646645145
-39.16479084166994,-136.7040489228163,22.261210928407053,0.36959308704270377,1.205885513224271,-1.2635671062900693
38.88698054071938,-114.82357047909144,177.94879030477796,-1.8071631100310146,1.8079958711472868,-1.0122163479579651
-146.69757690558157,-2.7842895911940673,117.3041071860165,1.514108948072788,0.2761373370074862,-0.006626394798129098
141.3144828607946,-68.21872501828747,99.36687153379131,1.375181763562094,0.876663089258968,-1.7550096727643942
144.66058552655556,5.8377371540998695,-89.19505982297618,-1.6949850611284134,-0.7125039467703491,-0.8257766652845748
-11.104492448074211,-44.88627288402492,12.924125851764558,1.8223449422910534,1.5488209566041835,-1.421015554285503
-120.93215589077582,-104.822156685478,161.94751214998092,1.2908216916173028,0.5614530870383656,0.1671319354182943
19.704490338478422,-3.3757869381867067,67.71895574599785,-1.6149521463803098,-0.41428797489233515,1.6428380148611632
89.52653632954838,165.7253595315069,-100.05670562789253,1.413238116564366,-1.3486548795969249,-1.5750949461689814
-16.480073247479254,16.187530660937085,19.417135359269224,-1.6935712780511105,1.678725945747487,0.6860168176719661
80.72441027163319,16.119307514109693,-81.62840840403962,0.7205580545552901,0.2916967566997406,-1.462218327133944
-99.81392867106119,-121.32399366229069,45.97465141234534,1.4459319696790822,0.6688224082307728,0.20291458057993506
-89.51938859286426,65.82269283246,-72.55000929891375,1.4904109962297474,-1.1761874728847714,1.5562940874859308
107.70405581306233,60.40747215207105,-5.074357583936205,-0.4807074580632169,0.07476174527138602,-1.3440842330668765
135.77874246999352,16.519706524141696,98.83630292434805,1.8434657947147453,1.0205269564029118,0.5542550461772282
77.60972543636672,-7.62858136818852,-129.9142815272043,-1.6331769225853088,-0.06780159585826429,1.2529763441798583
-43.537929883467,100.53675934086584,152.71620797186978,0.31824563861546507,-0.35731922568611596,0.47355870219408747
-168.37174871611361,-74.93688321642131,14.25373943817553,0.5762153979303961,1.4863507315535456,-0.4892915119982608
-102.86937503830498,-85.08739040453321,-121.00795624685068,0.5065921711349914,-0.43425120010001406,-0.622049869181367
-42.53776900729622,-114.82147630842016,155.25163947212758,-0.2540728895017623,0.3437445089353517,1.4601730817593128
179.97288629328972,-152.52601702980093,-95.51155332130207,1.1518176767113326,0.9674599123739016,-0.48618891580495394
101.12452225939018,45.08867146366268,86.31989990196251,1.8009745680641758,-1.996619309382094,-1.5426841341772155
-130.43410532791182,-40.5074124749371,0.21461436838637837,0.2324382307282411,-1.2524588535015826,0.9156836968378643
72.63656020882172,-73.58123175857732,-158.41553350685996,-0.30454218930787524,1.8799026040833184,1.7748295156769691
85.89895935768175,155.73858947948446,36.691069356313534,1.9366696648938997,0.7101031483676823,-1.8697843345019187
-137.65041282954797,-48.284610160284615,-76.48207425344796,0.7892670846740848,1.7778864986370913,-1.387873408936466
163.14564039294703,157.066548544311,-34.60406804909786,1.0776766474400397,0.10050207011952006,0.8212233086832819
-134.5568517692488,-29.30572454957084,50.71400854737391,-0.8900046322351995,-0.5369233516312071,0.7276205748973403
-108.97252924639653,60.976301467017095,108.0333846033563,-1.7355899600580385,1.2033927324219293,1.9758307161565614
-83.09466478380828,109.69498229814866,76.58997833716086,-0.2801349670050417,1.7008303087380727,0.6222479447209874
41.74105939483627,-65.48358087094975,38.40101630160109,-0.9573622385389458,-1.9552033864090914,-0.9296522509657197
44.78011695720272,-125.07188348726129,64.67629204870696,1.4199785588286762,-1.32323819865554,0.8315577622544099
21.93068674841001,-90.32544236996551,-172.88830152809803,-1.8091939376438182,0.27896148324937364,0.8779990071032513
8.2297909809094,49.63294519043325,-90.58109426407356,-0.1906736644031195,0.500739493365403,0.9347317506641115
101.50209380949633,-96.52892860063331,-129.9982483974424,-0.13568586903848967,-0.48474106141009177,0.9917394391589842
-12.01739185136779,-50.68057620174952,-2.540794785580374,-1.4837465252036286,-0.8276054433054787,0.32591938518564634
130.83360679118465,-68.84082844449995,-119.25581651973644,-0.10330366928362711,1.3117209298338408,-0.5798696061267785
115.15447503311987,71.89269238240385,169.4163233370288,1.6699536667600627,1.9886647993811084,0.35837222982496764
54.19018797381173,-168.42986056662298,145.10973340725047,1.6455214153543807,-0.9925056387010458,-0.7008438670600325
64.28158016302191,133.38388453467962,-173.64313360871958,-0.5403008707330623,-1.1987126838183255,1.1665759839031749
-153.58140535312629,-166.75479764230008,53.616381705697506,0.5193916483679337,0.4519672491328772,0.35206143417494795
-40.305969195748986,-173.3371180413315,117.0900636646648,1.3022205479220839,0.6296452155010899,-1.645344503621164
-3.7464742982660937,26.164283610585528,-16.133837364770898,-1.6531875393771123,0.7915243905546001,-0.9198301860958544
21.82155302324611,45.07678316270946,62.36175194700354,-1.3474619352265527,-1.6967282533898405,1.1816207017529776
120.44048905272803,21.799989995685166,-60.75546831912446,-1.115099028634266,-0.09421299724663434,-0.8829247218051517
-92.18724608904652,-97.27150837471088,-103.62754146651098,-1.8235504209160758,1.9776382379320312,0.36397305291417137
-2.993190146158412,73.02351930486455,-170.44247501687798,1.374478266602413,0.9738294569690868,-0.5325346592831091
-77.52382459069884,-59.010998810796124,36.96794697809318,0.47184186833180597,-1.194471291243402,-0.870970984449126
17.17129307313394,100.16685949548014,-14.374204911909118,1.5506330386323763,0.006453346078288735,1.4227619219350824
112.23808609392881,83.46447564266765,-16.1301785589892,1.9505784490402611,0.46076419914199285,1.011138117790555
-88.77150745169736,121.75374640798992,-10.561655449680728,-0.3312276330121078,-0.21234356301918034,1.3879456208819714
45.416436119492204,-49.33580976228342,56.39780724466448,0.24831717566403722,0.11239661358330721,-1.7995088754701762
155.28713072833693,137.1476994312314,68.75420204046696,-0.6519011569450193,1.5550995992964083,1.7977344293308373
-94.04344410748978,147.79426425303416,-31.69759436855,0.2921469136287751,-0.7481343276511265,0.788318226258462
104.85190110631743,97.71481841431284,-86.29457380243862,-0.8173367234584235,1.463025823385713,0.058337559973415054
155.22359108424132,129.5622469405377,40.38159257624284,0.5225245009996975,-1.6188469651562243,0.637280849897901
141.55588986210466,-111.79831544817885,-46.544180915800894,-1.7362516760877256,0.08498545009680436,0.2878123780915298
109.21956633043106,143.78803307068603,111.34531328103401,-1.8789210219978139,-1.3319721012630734,0.35780020567362314
159.5334802250726,-116.90870463784573,-126.86634772901617,-1.9746918978424128,-1.615383823653529,-0.43318743625690814
-134.08427272145246,-154.55542510668653,64.56453795688944,0.37146117875498685,-0.9095114328059761,1.5495456113400952
2.026377058769981,118.29444094365226,-74.46189679671808,1.440334535890469,0.4744729736105402,-0.418416353668841
101.77417461952928,-12.681036022456226,-148.91484259652867,0.3142028351949264,0.6572658151283304,-1.018254803540521
-129.04547157771657,70.19964761954492,-83.58294982115137,-1.6780300876264578,1.3485595474978154,0.499778234024399
135.1361946820116,30.0136813804599,77.55378275425653,0.8131381250706342,-1.59415569124419,0.9395642083160363
28.75032262888959,74.64685782795237,102.78287743155806,-1.2910081181391009,0.5388103502835513,-1.723824661874072
-19.34385480733846,-6.714455080804896,-76.31271020230946,-0.13995111980303276,-0.03979992200698401,-0.3527457806486316
140.3055521292011,102.27103417074096,116.43862842066665,-1.5995707105476384,-0.8465843963743871,0.4076782006514663
-126.07505318053961,-150.5293904673451,159.85104699529023,-1.8148468016606687,-0.6379226949194612,-0.48955905898136987
-47.636203236473904,14.210063975805468,-141.11149869850635,-0.7718882950905099,1.9724571840520153,-0.8583392278752244
-41.71211307136576,103.43962358299746,-55.008777579761556,1.8960036961188562,1.324301090627778,0.499375277164114
149.56627195864513,165.79349127227107,94.17591900314312,0.015077911454963289,-0.6370469275101827,-1.8450465061169363
123.69213248687078,-42.35278327874454,-152.73321683038907,-0.7276257855371511,0.050285135962032435,0.7044209393568321
121.52220329701498,-53.07251999678479,-177.62536244908932,-1.907628644648446,-0.8210988650988527,-1.8914091427251685
-127.28119477013817,-45.29349114283082,-153.9582716574326,-1.3615664359846709,-1.4323695202058992,-1.6663456919739694
-66.31676032096303,22.817383375791422,47.754327002266734,1.3810088419295479,0.07590402707246025,1.9671074477018817
154.67560153289975,-162.42924907456057,-99.87003673071499,-1.5427457442607788,-1.5010145446119343,0.22254925138674242
173.6066181873735,17.061804776396627,-19.94963929239873,-0.4189275679815294,1.5812062346825262,0.23991828093963408
-140.25640551937607,55.54241625264282,172.40348070070365,-0.30186932815042056,1.6356919700520813,-1.3302712027238655
57.84258854863552,-158.25747531936204,10.301397162880846,0.7759705028821924,-0.7133785005410234,0.6406986238308905
-128.75315510614126,49.05790798927461,160.75509406161183,-1.038829055070107,-0.38525247932185325,1.6778304730730942
-111.83035761677928,174.14753492329237,3.3862163219631896,-1.8914183314997466,-1.0580730531608222,0.226526462770825
63.64863520987225,90.66795571006253,160.91271947975332,1.014729060656523,1.813727845854471,-1.5972907481232652
48.17595703964324,-110.30647956608078,-81.37291722581674,-0.14948341738212312,-0.01898911642261014,1.5113555576207434
113.73878532953103,144.78799994094328,-102.93385089197947,-1.9006327841713722,-1.96928976454668,1.3198676000456229
174.96754302645775,-158.30173969096606,-160.19167135924056,1.2776410032115493,1.9336474452038677,0.21357597247114324
43.26618371909393,93.2640742733958,-20.69342619693117,0.8459698428316496,0.6865032961834316,-1.196906415422716
22.26761162948023,4.41381493526859,-153.80689715828717,-0.3263582289665181,-0.9927077151127257,0.8294778912237168
105.2433653308438,105.65766795034148,-143.94514989028136,-0.7384243282827736,-1.3180789529810593,-0.1283209907047107
-110.38444416813783,6.508114698549122,-122.40289895740617,0.18204052575901697,-1.9572307612107283,-0.9704790775022727
-46.342804905854365,172.15342500832764,-86.69120027879225,-0.16335097177013624,-1.4806223990782126,-0.5413517829910712
69.31507453156925,55.75534337873697,46.35058472323365,0.8417179018177485,0.4238102563719166,-1.0553647259966743
158.88291897963308,7.212824861310423,115.12400229740689,-1.813212554880582,-1.2937224940518282,0.1311088527710087
35.36827945906623,-71.36157944528263,168.00087016910828,-0.08606585177089121,1.156834238232726,1.2630433189366075
161.5578710894436,-95.97169476923206,160.09172233174633,1.5475970623196398,-1.5679121934711446,-1.947210398447007
116.02734488027812,-44.54473671233987,-83.32693140601324,-0.46225931584644053,0.18066706722069492,1.2654156663106049
51.718067825720766,174.35736522431705,-173.7339655460828,-0.5815961516837675,0.47674508941622173,-0.7035890659122757
-96.37276719780814,114.27757836918033,12.61954578303417,1.6368954949582557,-1.4192127129878611,-0.45392422530602294
88.87801394491885,-13.004277482661621,24.608274204545637,-1.1647467086688739,1.5946497214152933,1.0503720509196413
-80.1095409322772,-73.99277915440076,25.90341922144458,-0.9551021468462348,1.2361687707702416,1.301358575368773
-80.59949236044986,-37.4935376083925,-124.0944388922261,-0.44255311491756943,1.6152378773680036,-0.6556272655970585
-21.570376015876775,179.77261286005302,40.36807903865653,-1.8186250479724606,1.9535580110293385,-1.2378108611943217
7.582778145069369,-9.384378758691383,13.73579106662774,-0.6494881515663775,0.29106829987473315,-0.2646027303009375
17.10735751918861,93.58014790414143,11.283691007732813,0.746677894932612,1.277700113767351,-1.9184561653942258
-160.16029157163427,-34.382402135900094,84.45279521319964,1.6786222538665152,0.9845628742372976,1.8918296164423882
176.52151024544872,102.91227759086354,13.007539305783723,-1.7682326225537235,1.9971014732243821,-1.8709122401072382
152.84519750325182,-91.34761985177119,-61.537504301205615,0.8428867095511725,-0.5287878079074,0.5819760801089968
-162.04456903202203,-33.81936319611032,6.6236174686096945,-1.349482692885795,-0.6076597184869552,-1.3753394025901189
79.47892164539883,-132.71733836488374,171.5642716579871,1.0776444161211902,0.5876196173266446,-0.0925205371627924
-91.76132385465364,97.40356000912982,75.5480464221944,0.042398567055404346,-0.9969663063826615,0.8917513417851763
35.59369518109517,115.32343735337025,119.51381718934067,1.202249943348173,0.960305051659982,0.18477282517192473
81.46244392626244,-32.748170748529134,-12.747580854632645,-1.6258300940209898,-1.597524971959512,-0.3944534176766794
-49.61548345496763,-34.4416835562281,-92.76042907972749,-0.07452444852272899,1.4176447773408967,-1.6526249449664867
75.52228949901863,-26.122406628444935,-5.429453884366012,-0.7513971480393273,1.7096747762821094,-1.9356913018239292
146.167672235429,83.34457340202653,84.96342721300533,1.868107327206261,1.6293906853878486,1.3602786355585117
-166.68400922913338,-102.15288550771439,150.7638548970313,0.7647615940044261,-0.8635755284153515,1.1131117009132434
-38.19434443598038,39.97592217184874,-11.095785032580977,-0.06600588645327132,0.18554690538778074,0.451349980307743
-47.81512115735026,-175.00027732341565,-150.71137036649827,-0.8949889686654533,0.6601862894080424,0.3979649587854648
6.9989980225722945,154.97469227420777,79.75971582444635,-0.1349258695464668,1.608637522406326,0.6906461748855124
-162.92969022267147,-15.458429588905005,-73.43508362897654,-1.8903527727641327,0.7061018197864501,-0.5625693473478681
-170.58747665043842,149.6168874000743,-171.15843657427237,1.0534682958938149,-0.09021247591320636,0.11862273013397528
-11.794480860371976,57.16173863620446,-71.22083098797326,0.4726167577428053,0.6761270002513458,1.263090273762895
-40.627354620902025,134.94271589480496,-76.82771582587732,-1.9117388373840591,1.6588048664052066,-1.3777041038122797
13.167818442401654,-120.93018126457031,37.09969340235432,-0.9989890362967491,-0.9295826931421884,-0.6814426017405002
-150.65355024582178,-11.225162811772748,97.43994597235525,-1.3821676793113475,1.158617726484211,-0.8051712296313926
140.41436550527737,-10.242189391541189,104.01486875659884,0.05883660598842955,-0.14409100923579343,-0.9615213878532196
-81.5852321589405,-27.100700768752915,-139.73452994646567,1.4148372187958405,-0.44221395427217525,0.6587928941430952
-150.96615021531326,101.88452714849183,-107.57808017338026,-0.7704129094526264,0.25096895563794774,-1.0640574714914468
128.36300419054237,163.7109148560827,-70.59248542424,1.6808865797093389,-1.832129311336824,0.32247654364169476
28.13492963737997,160.48563140720495,-98.28997121384774,1.1400328088780092,1.9444078068302804,0.044407176902383494
-32.07974422219948,107.36440337407839,169.14288835154173,-1.0603820036470784,0.10984222658438947,-1.2515674750063392
-73.48502487424862,-100.67918131807305,-137.08003563094144,0.4362795969270752,1.9381666853072033,0.5941435706333533
-29.191997700348765,-34.9054481153492,-172.09199132557845,-1.4883587477176854,0.0013885871078338496,-0.3313448656848412
177.75371669278445,-159.62726715642552,22.478971337450616,0.16086156569037868,-0.7934174635110263,-1.7116479029317149
150.07590526698687,-171.53387322597698,0.3696632153196049,1.199933711490703,1.7168189847247461,0.6602238467307115
-147.21161654184493,-90.89071693276091,125.32946603283261,1.2203134764729788,0.7495192394120318,1.639798246407819
25.57435056676428,-20.458778937559032,47.42863000870443,-1.6468369267647822,1.944061899024697,1.0778680289513014
-35.77199928732489,129.23126133312195,148.13503300403806,-1.371544658845047,1.1899050888519067,1.3084885262947568
-177.6940839666006,-90.63733488431077,15.479566149458918,1.6414437579868082,1.2776817942995078,0.8093442542838076
-22.268160671850268,-175.45885309044155,-84.0119311813903,1.5622147305547895,-0.9967940545410037,-1.7803733689402796
6.891001300878372,41.643822710014945,62.478891903502074,0.8982108772242343,-1.0333195157967752,-1.2607820391173203
138.36648174887705,24.416840153048867,-101.64368202674629,0.5496702260367763,-0.20539258002845884,-0.09587418944681492
104.23037996016507,63.58768718675364,-130.4133376563531,-0.8954620405949085,1.5926642379167841,1.3909144629869843
-138.64638044694624,90.15265221051476,53.727465638237874,-1.8594610067405446,-0.8105255115524139,-0.9546618217349336
-127.67595508630406,62.37252608958855,56.59973890665404,-1.6449198064771373,-0.9745621279195888,-0.7194595928535552
149.7979358102765,127.43178545133117,-103.97601097828428,1.7567097221476207,-0.6967288689173765,0.41111907195766717
-89.96542423177141,-91.42231948965382,9.824262642121738,0.003458328856523085,-1.2591492656237073,-0.8930831451461843
-96.70898442744343,-40.584688064479394,57.90059201629316,0.5236128394221704,0.8519380051875585,-0.37313664162852733
145.2292911186995,156.5362948913982,175.7181517579183,-0.3276212419497355,-1.116408981027524,-1.7002866249681983
-63.99489332197581,63.54338762862426,-72.83226018527895,-1.3190784038473589,0.8366102483230944,0.9147623268745324
-42.776006027662135,-94.30309706589294,170.37970398752094,-1.8407778709239633,0.7644269725277995,1.5793599958234639
119.6242949054623,-126.84903005172634,-65.66981241542656,1.156925915428138,1.5090316686179013,-0.012993662152426921
-144.33430203021575,-88.31178397874208,-111.12834328410851,-1.9436191406780061,1.0906880426173489,-1.678364050318058
166.61986187288647,-51.538746355478594,160.68511660667764,0.055947793726655703,-1.7815234061660763,1.2463209464180527
-139.38733619058294,102.23913965706902,-21.634605123831335,-0.9523030999269562,1.4401320140004352,-1.8580509476301454
166.56876707677554,128.85095459596948,-136.07488462589697,-1.3407995069564405,0.7052997225205426,1.7541736073887932
-126.60595665948455,79.23539720980716,-157.75081007727283,-1.7509223030346082,-1.855839903606256,-1.0880424551104397
-73.96416230889419,86.71054723485275,-61.54413257991315,0.34751249316498356,1.4295031917185068,1.9248412791086515
-152.20676485271292,-166.97169738693597,-161.15440007473185,1.2107262899625608,-1.1421709519738474,-1.1698363243201668
-79.89145369831567,-98.26365512071429,132.60007620999608,-1.7295937402148218,0.7597003427571307,1.491927991173112
-143.95631317355537,118.54707097244471,90.9240809612798,-0.6777213689046446,-1.2862056669152517,-1.2677351504967098
14.130491477623963,97.66640500202095,-50.839823928592466,-1.8591218380762258,0.7739311004316765,-0.9111136709665533
-89.36030964810452,-20.136187190709677,140.62489309901332,1.40936097503194,1.2823481860471069,1.0950419683100021
20.252191253716774,171.4681818754782,-177.25047530318167,-1.1362503658803695,1.6325799021471297,0.15478232722610485
-76.68732874914726,144.79278390853221,-23.01084988038494,-1.938723404975454,0.6859864979041896,-1.9138937532188183
-74.67003098108543,-124.09858386193511,70.3413707785742,1.7636330379233347,-1.945927529835648,1.7533524834606955
130.3357171596246,174.88784706607453,12.48066685497875,0.2980811861669994,-1.6876449942496206,0.201850105988433
-174.3110734814107,42.27060808244221,144.42697999221252,1.2660357943878338,-1.7194367579952563,1.2100896643100811
-85.29231005854226,-131.55829157018528,142.00452026446413,1.7895123347856936,-1.3317507293847073,-0.8475724576232322
-173.2012403957062,-93.91407677663467,-167.0192748651005,-1.4614218327974209,-1.3155102242610592,-0.31115876399307396
-89.4115743397903,76.21180244139339,-82.75560030412123,1.211842976164471,1.4614246676972424,0.7123834493103978
70.47398916630527,20.14993905785306,-170.91291321600323,1.6445958239860223,1.2735643038517295,-0.016145411817201083
-19.58501042627961,96.25470504735728,-113.75256798086048,0.40588099108253584,-0.7173973968239378,0.4531354762761435
-68.25648706657167,80.23520524701422,-170.99346185068748,-1.6132315989059602,-0.639856400716408,-1.2784364516800206
1.5671056466451034,156.16980574371564,-109.01134200096311,0.4490751126254615,0.23377033147329795,0.7517348639413735
119.23426863429722,-43.71456930103864,94.29680511116942,1.3462631130259228,-0.37313561561530273,-0.8226841294335188
131.97253255465762,-139.5226386420607,49.399018082729555,1.9639193874699816,1.3038888804040778,-1.3971908476442287
-83.39843221491745,-179.62512743917983,26.930071405085044,1.9072220517016731,-0.3698604176152829,0.6026593908648255
121.48553455034067,67.30316727647929,-13.490147830455925,-1.4925381464956926,-1.3223869226121376,-0.8492210184968023
126.61584540730752,31.819296858500877,-117.38931113234455,1.0767369979274681,1.835702139157653,1.4456829031876182
150.13499098385154,-161.7447064742552,14.6908142200094,1.8759014100768852,-1.6645575222043605,-0.5550145966735198
160.04797885677567,-4.4188663296354775,10.005028375270598,1.8361354331444222,-1.3067583126243374,-1.8156316942587054
148.44852310182557,-4.171111650300162,3.617000084406243,0.4416101462257478,1.9846819364193595,1.3925099494550373
-67.564360770462,100.85199033023508,-71.22533234648267,-1.926952289001596,0.1528112560565713,-1.6738735580168114
43.39203558492841,37.18040317109333,-9.189638602025013,-0.6110106650690237,0.3134455185082614,-0.7956939687232234
-81.90666304952617,-76.29324910919908,125.47839482353254,-0.5032423401500421,1.2064905313880057,0.4553880686521623
-107.33405079380633,-177.83595736095444,-0.023922044073430015,1.76215760158455,-0.28564315336271573,0.7876215498711909
59.989101286961585,-24.255441430621687,-58.0788296206502,-0.7610120983043345,1.4871320176979381,-1.447993871410711
-12.61630469766402,-51.63960590838502,-0.004964997972763285,0.826101552906898,1.4837838786449624,0.5451889341314549
-3.2066896080467586,157.8237449045053,-160.1359754688902,0.8592656809702204,-0.9233577845125351,0.30113317355567215
-107.60009961267123,-169.26279946719953,44.90916199035388,0.7145730281489064,-0.9411507485366477,1.8757876600506282
-47.64735804758121,111.19928780509912,80.87676139146868,0.21666261144171273,0.46995995324829787,-1.87393419053651
-57.46967989079485,42.83928768451733,110.63785912876978,0.08068084212766591,0.1618296945311246,0.2294112491302256
-35.66637503651796,-137.01350542537787,-43.56935172519994,-1.5207382341433764,-1.4679765616378009,-0.38990179017366966
-10.721512076662009,-156.94850861794066,13.620216625123788,1.2391417400603477,-0.68698045772779,1.1123864250356155
85.90456346956967,-132.86875277431895,-171.70078205923483,0.4382609778778592,-0.22631352440572972,0.12222197650579103
-33.715244385473056,-123.96205121271082,79.26470221668387,-0.3729457012813353,-1.6210694864793047,-0.2981727503046203
-142.55746303457155,-153.33962612645502,116.20106199666697,1.868381283748854,-1.356547730565692,-0.49561878899108835
29.531160065512836,149.045047124091,-162.51545450225615,-0.08434897225797089,0.27830152778855766,-0.8683739624495614
-62.69378887465828,-167.5097586838005,-49.21974142912467,-0.47248698668192324,1.9141867817787026,-0.693264524505008
-122.83515049258168,162.84847314295274,-81.23194453274392,1.5780895201266776,-0.7351862641646023,0.4991018226849562
134.30162220534947,139.0499140005482,114.5893988950229,-1.835817706037385,-1.442329976925174,-0.22773436285425586
43.10733503335689,-1.0934506873990415,-94.78529501529765,1.769440402225682,-1.7783092460189924,-0.899883961659663
-55.27941285291158,-169.43666050304572,30.575094092396284,-0.6336386567683951,-0.11972347158228613,1.8712989902514305
-83.01273188908723,-108.20454914491653,-99.93272227057443,-1.2567164500842747,-1.1339076496501388,1.201907971487306
137.02983516669354,56.70222393542653,-106.35966326159078,-0.08863659040511251,1.703407061790605,-0.2128128869312933
172.32732924185308,-133.40168843146424,-157.72025473879648,-1.760109925409858,1.1911885662903736,-1.483207950826789
53.18498695848848,124.39574265578437,-130.45792867336678,1.2297538268224377,-0.5994524526259344,0.4493394423253818
23.162722700184247,163.90326587578284,13.148176760674374,-1.8334104878935062,0.22519757725035117,-0.9734416005162898
-129.1647964388857,95.32190626702055,-3.570034679854075,0.8365228511992493,0.0864922062503295,0.11518419497948207
170.36426095577548,20.47234268448932,134.48161009879885,0.22170202477571133,1.5411471580101002,-0.5638733604539037
28.612458357027407,-88.02517036720259,-43.452959212694196,0.9581947998482456,0.7705532084144497,0.817788064809505
126.25026803819094,-136.54831071738553,-60.118486080717915,-1.695132342445996,1.3833144981219352,-1.4763157753992777
-135.3199607887462,57.28979323624219,-160.4263657813278,-1.4128380639725187,0.16043769665251695,-1.5946785477212102
-30.30830009472666,36.10557379330086,-62.644842317974295,-0.25109649849253257,-1.399053376037775,0.32551293925768565
-120.2544365854275,68.01915317777531,-176.11443579921297,-1.0862787697345788,1.7032892086458866,-1.96591096716682
19.556225976197084,14.3513952009003,-145.82503744737997,0.5228543939893022,0.6675360271945938,0.6554281431713216
-172.05655107916354,178.57559429678673,101.26320352610975,1.1481395992943848,1.6263059882497104,-0.46305191342530616
39.325438486251784,93.52210784412341,134.61706749596607,1.727399948353412,1.5959063942366898,0.7747852813304843
178.08758888289856,-50.39871757729264,32.69601426678983,1.8932163501681387,0.800746613653418,-1.0245982492694647
-132.6228237099302,168.19501305215027,149.60458818103996,-1.4024714451188753,1.4004243633938729,-1.7341176369873157
-175.8499586379504,51.02287281194401,-102.47538445657561,-0.032970556681929164,0.2621020338717446,-1.632242720194192
-102.3433522672828,-100.90479237020239,35.03493206680335,-1.606908320382078,0.3767933829967176,-1.7275296896868282
171.66912277713897,97.00675160747664,-95.96352777488505,-0.7894680619153873,1.7885459671147252,1.083093825291232
-110.74776225712313,-10.862712579427466,-37.07965172077854,1.1650491671613943,1.7126317997210392,1.4443829537415742
-125.91147137394928,-135.26734199288543,-94.71221313402432,-0.12540621975733712,1.786333244994173,-0.802241530908903
-69.08541445434712,175.29935426826427,-169.0848898298093,0.35832743670648926,-1.5634111444802485,0.2085740536406342
-63.73302917346331,-168.00052370670687,138.15505811363886,0.7265301189538058,-0.3646986429699659,0.3808201303488379
-70.7391111941404,3.9055974525577426,165.4650645979599,-0.6416619587137635,0.013581202413141202,0.3548101331170779
3.224557021210501,19.349244350138747,152.98440471068346,0.15451407021742236,-0.6261709009433369,-1.8104118235424784
35.73889334064245,149.6827025784071,-68.92397127759352,1.047980243285481,0.012584171472179495,0.019759328645980734
-179.06006284359097,-54.177121443566136,136.47305859725748,-1.1042079550144832,1.1389386282611058,1.4087230575230745
145.40787197475623,-15.7485462653232,69.085414417842,-0.8547286780060528,1.6453897229309185,-0.27552293111159987
121.12915473541949,-44.669555962107296,-84.46469008922155,-1.7466214945445526,0.2840436271686526,1.0427708943790184
-179.30401309933717,108.82094036638921,-99.02656192526241,0.5501028177566685,0.23833280671472723,1.159592958438588
-122.31080313875454,0.20130271627471075,-69.85014041796614,0.7668361645025263,-0.3873205547535039,-1.0317089789276208
47.96540021189222,47.754390297468774,-135.08345213135095,0.4692624720861245,-1.8706862379203915,-1.7273624271414816
-28.901840492751035,-50.81823557521113,-8.069756025995673,1.931612790343204,-0.4190643051839711,-0.1505108971027549
-154.65978756127868,-151.2708277291353,-169.63568205313592,0.19057677958825492,0.29319774973585977,-1.2603533011329997
-4.7366786183560805,-9.105443917902818,23.27588420089461,-0.04183028316805304,0.1841588925471629,1.1307934201943834
-120.07583930334388,-144.87673676510735,94.18584871857013,1.236218836746266,-0.011611105131507315,0.14697458922548545
-153.64857608619738,-139.42842259890966,-154.05268736053569,1.6182977300191919,-1.232191578681686,0.36564734540322563
41.89388110281965,170.7756626769451,-85.5476728221209,0.3941642510782346,0.6827318451257862,0.2391233081725357
74.36083152448245,-15.06253037772413,173.5904957972249,0.9137291042565638,-1.1881079137218822,0.4888972863749488
14.109832444855044,0.40775521116731284,161.36110450562097,-1.7674788181031316,0.9320449180076662,-0.5727480245734373
-120.30550915064066,148.9313977939251,-59.57330031663514,1.2825479526102495,1.396353844152891,1.4600800852668891
98.15494658557253,-40.99103145949647,-159.4444944433566,-1.0801067950393541,-1.8886638248160539,1.195039139134078
-58.98109633535444,-3.715730098624192,-32.20112948233961,0.38014065037072786,-0.0668693573768846,1.0781470593528732
41.665887004595874,83.31778964267153,125.84272354258144,-1.7123298007297323,1.6917972051474255,1.0358490029953944
130.12955447974468,101.17757655294292,-17.348366273541075,-0.9036683016803928,-1.3178033881760989,-1.3731258294238131
70.05536334525351,-28.03713185626728,-174.76931563135415,-0.4669061070594376,1.4377924524059416,1.0722794096946489
55.38829577531371,-41.87317896995239,-147.75854536264038,-1.9716001078058225,-0.8712278230478079,0.017446970996358502
-37.913174718054506,-3.797897304141003,-41.15091133324384,0.02496931018912507,-0.4848884451443314,1.5574444608480724
-14.170391853319046,99.50737760367628,115.80638766334442,-0.6252933993850398,-0.7510985221285882,0.40307737795687704
-81.09004841545347,170.90930935087601,-137.48226794948692,0.3122632097512481,-0.08895291483019596,1.8324170207184824
62.40489405695854,-75.3450297474099,-141.44322994777903,-0.588514708738789,1.3252499681010033,-1.1802923175749425
-128.76484690076552,-33.47048525137984,-16.10565686606182,1.2453881120502301,-0.2754694285364714,0.14301298865883716
88.92060936827568,124.73912111749382,-47.11702227555372,1.0125767109255746,1.9279133509132542,0.5900893410208661
-164.43303891833085,2.660655739323289,109.125930343665,-0.8707493234097092,0.6561108461343719,-1.9513076918254622
-158.48448688498695,-122.1348743620164,42.214960376350774,-1.3692035161446636,-1.0697576557928241,-0.1229305976648778
99.74259437216239,-96.09658116277575,-169.81105466834768,-0.9428786744938411,-0.593829932378152,-1.50154135176138
22.675632989166616,154.3975359249473,-40.62332059077937,-0.4475925013248738,-0.06300636403705795,-1.297013799800522
-43.65980890896466,114.22736532390996,138.99116255141791,1.4312307867068634,-0.13368908574646543,-0.0975344639012965
18.157750705808837,-36.99271042495397,-15.551524944073975,0.892694854081046,1.1088270695454505,-1.0903351081275923
-49.90757138922092,115.67617788401856,152.58385148732003,-1.9666077270731188,-1.8020120469068672,1.3852795413786216
-22.25044356106099,30.38529732820072,80.02520373661588,1.3521584642835038,-0.2262208375768644,-1.2102645476158602
14.074545368482774,-130.4645301010799,-145.3394123481073,1.201626730571868,-0.6686664041313795,0.6439896196462578
172.29519703549522,-156.01162968836763,41.53051080293963,-1.7393782362240762,-1.0604197464425815,-0.7378762514794941
135.72088760141355,-134.99697021498696,-94.57156201014095,0.667501543296932,0.4116091943365814,1.256988810514334
-142.98553630406548,-165.44302375188363,0.26790086653375056,0.5022056083900441,1.6609562156087976,-0.7116233901367823
145.49795502981527,-152.43269887426598,86.37643251056687,0.35874119195495746,-0.8980677054474122,-0.6145322598000473
-94.32479709153417,116.22535389054866,-76.01886170985472,1.3496302741250568,0.9928870844505022,0.7586543774385195
-6.105633144870325,-57.15358605768094,14.946772525187924,0.9207970810942219,1.59066520765791,1.6734987143327973
160.17499911478603,-33.65704052501087,-93.94008059456517,1.7006857337617576,-1.7586718505329846,1.5912898917823117
61.774624513992734,-132.78302999470307,-138.84061159986624,0.7326411174875456,-1.0535584403953702,1.5338018023190223
174.08022753256733,-122.58818058539985,73.87941218976627,1.4104154020635131,0.4081224697035064,0.7827645761591766
-163.68038347260028,106.96397499711588,-110.39389736640226,1.4480343617268296,0.36714406214259787,0.28054825939395567
-109.08170365358154,-71.33720755767153,36.35266088316686,-1.0517312186266978,1.336717502331954,0.9424199633126289
-28.34982748882524,32.540388124572104,143.42786864645842,-0.10633923612062812,-1.7420849520909742,-1.385088723604377
20.992822030678155,-67.38480073914519,99.58738936569097,-0.4118740263307106,0.9687496242783489,1.3919520292484804
-63.49667908643076,-101.82040585892857,-21.504696761806514,-1.6239546589060496,-0.30095083059074623,0.1572654590618292
-114.9847498040421,101.18127564733561,102.28623572978591,-0.5832675394253557,-0.5820875473438547,-0.06626257200826302
-145.97781310945757,20.715863816353504,175.15135424569826,-0.2056418137903182,-0.8041867234678999,0.9408583473279384
91.78658332833265,-124.25194740610976,-134.40432363585614,-1.751513689666973,-1.9644744269772798,-0.8415485389619062
-170.64278603912223,-150.9993756696424,-22.027549323022356,-0.40905759910547346,-1.2867133054581816,0.9886845555857202
-147.59049978232522,61.02757358745373,132.89923971871553,0.6348421004787062,0.45014062245436826,0.18191629910763485
-165.84511632019806,-121.34262060281827,-30.070014106990754,0.6034944445104875,1.1302323358831385,-0.8432271775352018
-37.408154179407944,61.00594990471981,151.2743825280844,1.0053200403658087,-0.6365338665564071,-1.6166366895968758
108.39330066260709,45.92430626970386,113.75558281721266,1.1639027329699285,-0.5147859658729939,-0.18066025626166926
-132.2094092070727,138.9701329303834,50.42052270792652,-0.1851133704286414,-1.5058697111519082,-0.507548860640159
-179.3582597778295,-165.80390627510863,137.9770263458787,-1.2676133072717404,-1.271170521395475,-1.3078261050523263
-130.34732286949847,15.970656409356934,64.33730704618574,-0.478455673619663,-0.4809232186636674,0.689651437945245
-39.938894113274074,-169.91281302604662,-6.2926846239252825,0.6830418338609343,-1.2394650341586617,0.05293156850488234
167.57579034737148,-157.61952376055692,-169.43360879993634,-1.095296484971481,1.3082058082027839,-1.3503815923237212
10.738811575138186,37.12502270435229,-12.014279642295321,0.7570327965890917,-0.01797012037102963,-0.3842935486807644
57.15083518751217,-0.24563931851332654,113.84763600809879,1.374779134097817,-1.5671083170312445,-1.1881372262648155
77.48052759234577,-155.29196215426515,43.398916504915945,-1.49201962677303,0.16451999152112196,0.4615669272444429
-22.307875883310345,-161.11511256684918,135.84175980938437,0.2323722700005395,-1.8110686824383704,-1.320876058873155
80.91060409047572,141.29608566946473,162.59202879158727,-1.775390291051783,1.8871170057285274,-1.7861948578017914
91.8409897554767,6.752944064666707,-164.2466838073639,-1.489010400586852,-1.5531831483330651,1.3366810109502132
-153.64313036843737,23.976723178881002,-44.88613944472013,-0.34760807297932494,-1.200488616749598,-1.9642867425950374
-52.494986944515574,3.3954642167207965,-162.5728483922677,-1.4045197583154065,-0.7469040293980895,-1.4813653319174516
44.60996510580762,179.89218886498224,-173.1191884558552,1.0497275669452089,-1.909209024146758,1.323744019400706
81.36037403866169,-85.61321573886097,-113.48625362197181,-1.4376180465755164,0.5803343878285054,-0.8844840157413452
-42.95693806921315,1.843481946884566,-40.455311792520774,-0.12017709578612035,-0.21694247609498474,-0.32499681640545974
-59.294899859590075,43.43518065424311,-178.86387292363304,0.5859143339375561,1.7375608614762506,0.01197110701280657
67.23361227820382,145.76853198317002,-109.80601291014014,1.3513085787104848,1.5983563855100762,-0.5849433506579484
-124.90355241614127,-4.945899467512049,-21.03029322259181,-1.0518538789480845,-1.9340843037249131,-1.319275312943978
160.10020957850537,177.5779077761839,-143.90254280055052,0.6288633599645772,-0.5254622495468917,-0.4187802855048237
0.08197882777864152,-90.73170866576487,17.99755839892964,0.4050024614444845,0.18532698945021808,-1.4401744379285466
147.47279957638648,167.55300834100854,-25.632579578248567,-0.6610248143320536,-0.9649015837102342,0.34059119383175185
164.75562250640013,-166.12166144960474,47.61451789788836,-1.7053001476430363,1.3072519014263624,1.3345949127418506
175.4040670196202,80.0238691549967,-122.68767865998971,1.4861352448885445,-0.8426349680883498,1.8734803720709547
-141.03980625271362,171.62786676346167,-87.56802473137844,1.4068758464397662,-1.5989452127001895,1.2636597077582277
-103.02137874852751,89.90244951115028,-95.7728478464104,1.6396837612829,-1.6221295938487632,-0.21355421455864443
162.291739584646,157.26658676060623,-0.15946534528390544,0.9122829177210479,-0.9533051304191975,0.8324540561323164
-66.15550554043737,49.25888420621041,11.876835137263328,-1.1791550974084313,-1.7354500785648619,1.794866879704378
-14.016396437017079,-34.211160314173185,-170.23706638148934,-1.7068846079243793,0.9754092675678141,-0.34441254693073153
153.73677590756364,60.275542636766346,-169.27771380705772,-0.9363600570448618,-1.225268109395651,1.3897886116252844
30.909104026548306,133.99569596453193,-5.01246171605041,0.4962456924718821,-0.947131129826349,1.1924888385364545
135.51076038650808,-70.57036190290037,174.78652556823386,1.8077195803380803,1.7047077310414576,0.9514328118490991
-87.01075388345961,84.07620125807182,-154.6935709207018,-0.04435755502476013,0.4921135637286018,-0.32353163400587803
142.9851156276203,-65.23629540367052,-173.612343656005,1.6247696387573707,1.8211497659340794,-0.6412697713138238
72.71064939507261,87.73245001824506,63.22732472604807,0.46059114096602816,-1.441397353587142,-1.6131097655046993
-118.91083747576816,-18.13525667233577,32.96803954983645,1.4149463380860867,-1.20497085712659,-1.8574745127930026
-78.9401367390126,-40.36005659474236,122.2733897827419,-0.561076666489833,-0.9251881095304704,-1.8126269927441259
56.71713240571509,-118.53007488138942,-141.7113670718435,-1.4897252918220039,-0.1919761891638676,-0.9885806174803111
-160.33701086121508,164.97065207222897,-83.28120707570605,-1.8871647004727876,1.0133040710477639,1.243122955020001
101.54961944516566,-114.59361179540834,99.97718230713934,-0.6716169973934805,-0.9329711812483752,-1.67020006795603
122.97128133354545,130.8103332079961,-67.0618690615984,0.32486476223364447,-1.9980929179318658,-1.7827654227976661
99.23532104905826,132.83184246434672,-146.6299279970279,-1.4295521826551796,-0.7309106365233133,-1.9001777349333024
42.115983107998375,145.31486376749467,153.09932692224965,-1.2013015543014802,-0.27306990399284903,-0.12766194840367273
-115.57886295503992,61.84743809117148,-126.08274806012673,1.7126564183780193,-1.8338063976038472,1.628611546475636
-128.38389580344872,-31.47442800410954,63.57908774601378,0.6733063362651799,1.9993495370875962,0.3789759231833165
136.8572808183797,-41.99007455276555,0.27303291181613076,1.0736910508139306,0.8477088458228397,-1.5707838979723148
156.48011967053657,163.65482863011653,55.21039295922853,-0.7687605024114506,-0.1460892188163183,-0.04659362101393549
161.24878134587175,129.25659691890803,95.39296424785385,-1.137695522598512,-1.7033114906143871,-1.7653671141699268
-124.91501751300557,48.02960918763145,-133.00893149328564,0.33737881302436357,-0.07445631091575322,-0.30569004257291965
83.19210721468403,144.88720962666088,-41.51350099396558,1.9025247395693894,0.7455365278296378,-0.4734797430209121
-116.08272000715846,20.97581677706063,-130.88479546006994,0.547377881851701,0.3991149212429108,-1.507330439738038
175.97281438354764,49.214032189862735,-144.9470769443371,0.016906820296468617,-1.525708482331667,-1.0868664344632113
30.75512948569761,0.7974490471890476,150.26484226320156,-1.1118223997639802,1.7323119293461136,1.7406011846584444
42.95008982060756,70.96964688809749,-31.96206334243692,0.819222507176387,-0.0016112595332278268,1.2415369064488613
142.3400835509807,124.98104695427867,152.18817017061195,1.7992799966861992,-0.6685516027997056,-0.6636863866651388
-6.6358453660968735,50.404878990562935,-52.831014005244114,-1.0720051515742655,1.0113957661545632,-0.6606766915973963
70.392797368027,41.65066912914588,-63.364369057930176,-1.725240596438962,1.261331269712116,-0.12641945741527216
-51.94280861170995,-139.72530478380165,-90.21173028251816,-1.9639182865903817,1.438621988130056,-0.20790630571519442
97.62601240567983,97.08382485149184,-120.57357665323025,1.1722325643778548,-0.9387127895121004,1.737808396922119
-135.81243915231954,171.54632496447414,-57.71991828163692,0.5521498464550221,0.6069969116510161,-1.5956688539668633
81.31056914554694,118.79572528914116,172.65431173910315,-1.9693848441439226,-0.6302882170003441,1.3836142411298011
-145.27151687065825,94.65721512188725,-172.11045015300286,-1.3252458196587553,1.9970943414827294,-0.038183873411127944
69.10295707237526,86.84403052086066,42.933810647432665,0.5255530456694522,-1.0565893853555814,-0.1050689937297542
61.9251042924588,-85.52684944161516,126.0839067587944,0.9480419691526487,-0.6223623156109985,-1.2305902029818245
-145.53657023812093,164.28805482708196,164.71918235044558,-0.520475907842854,1.8211661269740889,-1.4880600760724567
114.5245261399632,-178.12397739456853,146.37834431150293,1.0091881629697736,1.0559505536166873,0.9518934670569941
-114.0909877787722,-81.5299645501879,-3.0276894751485486,0.2555957145210699,-1.579407402202178,-1.3868475300654608
-159.4949324226391,-83.8227526311831,-7.060376137250387,-0.13363296954513215,1.390198357801971,-0.34079555407507733
-147.81980246658281,127.5959158246639,7.123718075630592,0.2532491830277803,0.382535503497452,0.1759538239031544
-150.8479770052959,-14.747135783799479,-31.187928675925548,-1.6928747182918071,-1.8430816634949436,1.1242994453400037
-141.97553673482892,163.84483274200204,94.82524344414094,-1.4104023861339852,1.9994297964382612,1.759437021577158
-59.61641291963248,15.819343836807462,36.050797545072186,-0.8273727379350393,-1.4223884170554086,-0.54848842191964
-155.74650903688297,-50.49110832029754,-24.853559138439294,-1.7569857267523292,-0.0772826899576402,0.7347713848269617
86.80945345016096,-59.62959177291614,-70.11500748249877,1.0711664196155355,-1.6765806466236786,0.6576787606595689
-168.51080314067747,-38.984596948966185,176.35051508238206,-1.2168614834423912,1.6059196025469173,-0.06087421556747641
-69.36404527044621,-172.19998369489738,-166.81608716063639,1.4102111127095243,-0.8883382766482186,-0.7341522850401403
27.677078942076974,-35.4067018770086,117.5485534490868,1.3485011607894477,-0.31886724069694683,1.344247530670597
-171.0150565036746,-172.83973256000857,-32.71235520810333,1.318755367246062,-0.9609208984505262,1.7061645574348483
55.64573750305209,-46.36463005418298,-50.244954137466095,1.7302714449171193,-0.508808716696695,-1.2002198879330686
-85.58633284896369,23.12634161068985,-156.76907718827317,-0.27657152232364624,0.018628464093626285,-0.12265045167981325
114.05707069236769,-154.6136943035612,45.94469771912847,1.1774857866031505,1.908003966266377,0.8750955637127236
61.100341330678845,-9.40190421885626,123.81068860221046,-0.2353735180844052,-0.582664051739127,-1.1418035694643849
146.61696593001778,-113.18625490962202,87.43135620412204,-1.7489200498981838,-1.9595658262285998,-1.7162637583598275
-70.86546068966209,-43.98405651487215,-49.822712579684804,-0.2818445379999335,0.3259418096519724,-0.5540402462782126
49.63018885035112,110.17897358288451,-116.6660966191236,0.41189316988829106,-1.231373001391883,-1.0227677563971707
96.05007589020505,-177.086728896169,-113.60204332136736,-1.3930015684095371,-1.7592662802699421,-0.8045242341025745
-30.801716900586683,-122.80735004676202,89.3581493556041,-1.3400044144836736,0.43160277734032393,-1.082227509713813
172.11828424538697,122.16835932500618,154.89635055446053,-1.3277878203646671,1.5451274898350045,-0.5001795830806057
58.62239937416766,67.95297619130596,29.774036501015985,0.5806054058834773,-1.9933532657000193,0.895849591825046
-31.019544220821416,-46.666076453702146,145.892452610848,1.2146630939569163,-1.9365441538394847,-0.9679215189298547
130.48818870227387,-105.02669898956283,140.30626760831416,1.5606689380288414,-0.24026371011665004,0.6586630345285909
-141.38528659533256,-87.14919702965234,-96.80491960668502,-0.6225066785955016,0.5726130678512962,0.3144496416810325
-160.75192168977173,150.81808687186435,108.3175390625808,0.33995147843042073,0.5874260503559263,0.5694724732886609
-14.661953433225818,-19.914292999092083,26.96648117874369,-0.5730433165383646,0.034233919546907465,-0.9396686183802756
-121.74530833997821,74.18326456213339,-128.56036837151777,-0.17557929218592605,-0.28552456476969335,0.8684230160482205
126.09936276820133,-174.86313862004357,102.6536177392353,-0.9523801780098826,1.7742328270684995,-0.8211176302093142
-64.45478760317866,-2.076974680160987,80.42085007839961,-1.7176639288119024,0.9647060157274159,-0.5438785263621284
-63.64411581568089,-79.76939437224678,-52.599417376397426,0.5098405073605541,0.9118493847212754,0.7669153955598036
-170.83175510951946,34.09912153848711,114.60561974929323,-1.5465113876112837,-1.5887921788260404,0.622551630660185
-150.8792093453132,-105.1627142175129,-157.94218804421658,-0.5939806545949775,1.3186461316496105,-1.1194631518652352
94.76846004280497,-136.185481081951,-116.0702194175534,0.1345528766565156,-0.5894710613546597,1.880453929415412
37.05304845177338,-172.09777609112783,65.54630411558279,0.16189169346768129,0.7849265147611977,1.8417045676558619
22.140070065188183,-114.74469910965205,-179.8882881341011,1.0852384824321808,1.2319878900626517,0.38212919810328705
41.06474756831162,-47.261848311219694,95.13530846911749,-1.944556145951267,-1.8312420310812771,-0.9386591551575569
-159.12583773866513,62.30523722280469,22.191711181612163,1.914860917234075,1.3936640501064566,1.12810243185789
102.27249902187094,-97.58438422461066,83.98719521985504,-1.1640070826029838,1.8357736168386638,-0.8257603581992083
172.7156422647907,174.38025421708528,99.85148280230698,0.739707815913095,-0.9950662994564006,-0.8344625706377102
-47.865691491671214,58.816149425881804,-68.69203971338248,-1.6813161091565996,-0.9190097174253777,1.5491956812466734
-13.992036792826923,175.31764744747198,170.86251215194272,1.0239792811629176,-0.48304944086078816,1.634613192035287
119.4835522627053,-15.109896195362268,42.21830094531151,1.8012199037441148,-1.4095899923405337,-1.3480760130399014
-19.520729439087745,-61.94739543930254,-172.36541784957248,-0.8920074663826738,-0.9045540217039791,1.5562637150480971
-59.43900025019626,-155.4151717332663,161.5594546270192,1.415354004474318,-1.4077595641384537,-1.7492361535612684
161.58995516619353,-140.87846089875137,111.65596162025747,-0.18444558855023896,1.6685872160543322,0.7895440855122478
117.85935969019113,-27.430374345554725,-85.3371148059678,-1.633722742770353,0.37913326553328286,1.7111067716015826
101.30402563282735,140.6983032415643,-69.18516753760883,-0.3677939689837202,1.1349863558132411,-0.924111297307725
-93.88313616450765,-127.88857370028757,97.5446038487263,0.2143132446265712,-0.07892706036558828,0.10314907180374844
46.358625679096434,165.2950906384761,-178.804009025037,-0.826921457738337,0.7891937471202732,0.8006291546834885
131.21727240978595,-157.38645407345888,126.70682073983278,-1.30210058748722,0.6599877350430639,0.5653679381811476
-94.66764637954856,-34.97501810072768,-102.96991713755936,-1.6059383789902943,-0.3746612168346326,0.7463187143612746
-141.64030498570997,-84.98293642880476,-134.20898002062023,0.07717168764469218,-1.0742625033904405,1.9092151318586414
-170.19841226122878,78.90486855275782,142.6492528467486,-1.908400327701715,-0.7740230471433187,0.46222992662614404
-28.406166038721096,11.738909444777278,-101.60275246787951,-0.7763244511192693,1.7342178138255924,1.9692449456334913
-39.837026008958844,109.65570922171952,-79.37100624458024,1.296787976413405,1.6926252423569803,1.7985485618822477
-49.954087302321255,-33.91307915741365,74.16532174792803,-1.0511197485731572,1.5890538812852744,-1.6928086178177901
63.33647926886502,-131.21108660707392,-52.39312093034073,-1.279101484547887,1.7434509181766917,1.3358883528854202
115.97443535413589,-55.108566392700254,156.8568537739381,-0.04768730621378037,1.5352717473669486,-1.2701261221242692
43.44365854383145,-152.9430499332989,64.22279874185097,1.8241856915353232,0.4088989647380452,0.2792398287713773
-72.33286544631285,112.59582253930608,-102.77497398375911,-1.350082687325334,0.3897330717892724,-1.2469748147773472
33.97842303439418,-164.29586723013588,29.910007543928373,-0.8846539379012053,1.971651394981365,-0.7683232559428252
-12.032999281261425,-78.32008523386214,135.11849782217206,-1.3799264207838924,-1.6749893189764782,0.4418179416685293
-162.21838048175363,-153.84267178677442,85.44235391667797,0.4002323951890645,0.7576599047727597,-1.8414635570706732
68.19557773433698,-3.515171434462701,57.04759729085484,-0.07395874311071982,-1.9699427447574198,-1.9547774346097442
87.0863278380715,-122.62916422339357,-46.03414078174299,0.6088919188031836,-1.3134092078952797,1.3142766616349708
144.46084977452603,24.115945654699146,53.59196482733188,-1.4772695735600858,-1.9498602471455913,0.8153274891700972
166.27770473315502,143.2051503032488,65.0800493303959,1.6563103080250494,-1.7323714674201227,1.5203042674682279
75.4412411016302,-110.09956523991949,91.99946248301069,-1.783659740883706,-0.726275203954887,0.22865248025716856
1.5927611274434241,-93.08172335703175,49.27606651573137,-1.7925972085957014,0.912043304549957,-0.003992490549065142
-23.80058607701983,140.3753633294598,169.30449250415018,-0.8689041437808789,1.2178065432791287,1.7129966777163705
176.52384019437443,170.2415983858918,-125.50044632151526,1.8676582682267986,0.6058059887197627,0.9249118860165177
143.89071445952987,124.0807366368303,-32.82049189067797,1.3096393494621608,0.007643168599071437,0.7075094846728684
87.33426108536372,-79.70603025011928,121.4890947373654,-0.686779613502861,1.8418212279031487,-1.6167181471715035
44.247465334711336,-100.92813782139851,103.37852186688042,0.9226530296432336,1.39864097316226,-0.8389366489466163
-148.8303969059975,-26.829690398945587,59.131617755740535,1.871362100287258,-1.4814171650030707,1.9981659354905243
-22.964709188232348,127.26923578862443,-168.79492269942583,-1.2255843298846156,1.942898137022845,1.1850270082841496
157.5205331146508,40.87627086173981,-128.02101930690307,-1.6700212932567413,1.6434348443633446,1.8900079087904165
-156.4736578810107,5.493833065728978,87.19923080387099,-1.931922715604606,1.2090933852345809,0.05107247421990202
-144.17096526732485,-74.32236175189081,-38.74783162760255,0.21904323626015865,-1.8528351180801983,0.14066525192712254
-111.58117726623318,140.34006154833713,43.620217965007555,-0.7986793176560174,-0.24291760185859523,1.6940771549460032
-160.71854507769015,-31.578006067242598,145.0452429782635,-1.2942107854185338,0.9669161958906489,-1.541118966920227
-45.56865315803722,67.82509438395954,-95.21797938944927,0.7270525298252122,1.4248394931429669,-1.5453173639621225
12.478998261534002,124.94440934915127,14.571342763974087,-1.9313808104912185,-1.0009601823540026,-0.08741398746546558
-8.56149754662718,-19.135697809525453,-117.26867595902405,0.442081602011247,1.5426895787955077,0.18313605542067402
-98.34144961564772,130.4459141000945,167.75261025922867,0.3878169247159948,-1.1908462831300217,-0.9477726554980266
-133.28353264268938,4.012105707784457,116.9594996817089,0.9882241138956309,-1.313076689320272,-0.6357358798892099
141.59890713145955,96.66656768169997,-31.763894262842257,1.9331885075502702,-0.9746800252716006,-0.08952995021258925
44.93709483874281,152.91649074708073,-73.83916779736249,0.720782926699933,1.7425369378043452,1.6824207623488499
22.291989631062478,-64.73328807976579,123.04960635428034,0.526915151965063,1.2600717376571184,1.1301031581601135
60.74570098802087,-137.27795342788673,75.1211785505121,-1.4776877631432894,0.0639206533241401,-1.2438630046799992
-48.91782241425719,-39.38825520872851,-147.20322456862837,1.6625115273566031,-0.2704129931030388,0.6140897162832912
-6.278575098418685,-162.98989457838002,13.286003564179566,-1.415316533816346,-1.148890926812983,0.9063053330781012
51.23749734621498,-87.21085657986443,133.21522284077798,0.7522581625098614,1.5893943049884007,0.9316473239280536
15.283451535972972,-109.49743318644028,48.679951646998575,0.05155350349839072,1.803770347043343,1.1624048059167156
-103.79934277036416,-26.96867989226223,169.69954354730953,-1.5092416723364965,0.2700786196085607,0.23646941000766208
71.614674162771,73.85227921817139,168.05997896378108,0.897149747143621,1.3996506418626664,1.5242450228747697
